mx_center 	 my_center 	 mz_center 	 Acc_X 	 Acc_Y 	 Acc_Z 	 Gcc_X 	 Gcc_Y 	 Gcc_Z 	 Mcc_X 	 Mcc_Y 	 Mcc_Z 	 heading 	 tiltheading 	 temper 	 pres 	 atm 	 alt
0.00 	0.00 	0.00 	0.01 	0.72 	0.93 	-14.86 	-35.03 	-40.54 	15.82 	5.27 	4.98 	18.43 	359.89 	23.82 	101558.00 	1.00 	-19.38 	
0.00 	0.00 	0.00 	0.05 	1.02 	0.61 	81.09 	-27.40 	-51.70 	7.91 	4.98 	-5.57 	32.20 	 NAN 	23.86 	101559.00 	1.00 	-19.46 	
0.00 	0.00 	0.00 	0.18 	0.75 	0.90 	-78.09 	-116.63 	-167.68 	9.67 	6.74 	0.00 	34.88 	17.42 	23.93 	101558.00 	1.00 	-19.38 	
0.00 	0.00 	0.00 	-0.12 	0.37 	1.04 	29.42 	-11.00 	51.37 	20.51 	4.10 	1.76 	11.31 	11.27 	23.95 	101562.00 	1.00 	-19.71 	
0.00 	0.00 	0.00 	-0.31 	0.43 	0.99 	28.11 	50.27 	81.79 	21.68 	-0.29 	4.39 	359.23 	2.46 	23.96 	101563.00 	1.00 	-19.80 	
0.00 	0.00 	0.00 	-0.28 	0.53 	0.96 	31.36 	9.30 	30.75 	19.92 	2.34 	4.69 	6.71 	7.06 	23.96 	101560.00 	1.00 	-19.54 	
0.00 	0.00 	0.00 	0.17 	0.70 	0.90 	-66.17 	44.72 	11.53 	18.75 	0.88 	6.45 	2.68 	340.47 	23.98 	101559.00 	1.00 	-19.46 	
0.00 	0.00 	0.00 	0.06 	0.22 	1.01 	38.02 	4.80 	41.63 	21.39 	1.76 	3.52 	4.70 	1.81 	23.98 	101559.00 	1.00 	-19.46 	
0.00 	0.00 	0.00 	0.17 	0.16 	0.98 	-11.57 	-34.53 	-2.56 	16.11 	4.39 	2.64 	15.26 	12.56 	23.98 	101562.00 	1.00 	-19.71 	
0.00 	0.00 	0.00 	0.08 	0.54 	0.98 	14.65 	69.62 	-27.50 	19.34 	1.46 	-2.34 	4.33 	4.94 	23.99 	101563.00 	1.00 	-19.80 	
0.00 	0.00 	0.00 	-0.04 	0.48 	1.05 	1.51 	2.97 	6.63 	19.63 	1.17 	-2.05 	3.42 	7.05 	24.03 	101565.00 	1.00 	-19.96 	
0.00 	0.00 	0.00 	0.09 	0.51 	1.12 	15.82 	-47.02 	12.07 	19.04 	1.17 	-1.46 	3.52 	2.68 	24.05 	101564.00 	1.00 	-19.88 	
0.00 	0.00 	0.00 	0.04 	0.53 	1.02 	5.74 	-4.45 	1.72 	19.34 	0.59 	-1.46 	1.74 	2.46 	24.06 	101565.00 	1.00 	-19.96 	
0.00 	0.00 	0.00 	0.11 	0.49 	1.03 	9.73 	-10.25 	-0.53 	19.04 	0.88 	-0.88 	2.64 	0.49 	24.08 	101562.00 	1.00 	-19.71 	
0.00 	0.00 	0.00 	0.12 	0.23 	1.23 	-27.76 	98.58 	10.68 	16.41 	2.05 	-4.98 	7.13 	8.96 	24.09 	101563.00 	1.00 	-19.80 	
0.00 	0.00 	0.00 	0.31 	0.35 	1.12 	-4.23 	27.24 	53.99 	12.01 	4.10 	-3.81 	18.85 	16.70 	24.11 	101565.00 	1.00 	-19.96 	
0.00 	0.00 	0.00 	0.23 	0.16 	1.13 	-4.71 	13.82 	-72.07 	11.43 	2.64 	-2.64 	12.99 	12.50 	24.14 	101563.00 	1.00 	-19.80 	
0.00 	0.00 	0.00 	0.09 	0.08 	1.14 	2.24 	-10.03 	-11.62 	12.30 	2.93 	-3.22 	13.39 	13.85 	24.19 	101562.00 	1.00 	-19.71 	
0.00 	0.00 	0.00 	0.09 	-0.14 	1.07 	11.75 	-5.31 	1.69 	12.89 	2.64 	-4.10 	11.56 	9.50 	24.25 	101560.00 	1.00 	-19.54 	
0.00 	0.00 	0.00 	-0.02 	-0.04 	1.14 	0.40 	-0.10 	-25.42 	11.43 	2.93 	-4.10 	14.38 	13.74 	24.41 	101562.00 	1.00 	-19.71 	
0.00 	0.00 	0.00 	0.04 	0.03 	1.13 	0.16 	-0.80 	3.43 	12.30 	2.64 	-4.10 	12.09 	12.47 	24.48 	101561.00 	1.00 	-19.63 	
0.00 	0.00 	0.00 	0.15 	0.06 	1.10 	-18.07 	-50.97 	44.11 	11.72 	2.93 	-3.22 	14.04 	14.02 	24.41 	101567.00 	1.00 	-20.13 	
0.00 	0.00 	0.00 	0.16 	0.09 	1.11 	-0.10 	1.34 	2.66 	12.01 	2.93 	-3.22 	13.71 	13.78 	24.40 	101565.00 	1.00 	-19.96 	
0.00 	0.00 	0.00 	0.17 	0.09 	1.12 	0.05 	-0.12 	0.88 	12.01 	3.22 	-3.22 	15.02 	14.98 	24.40 	101561.00 	1.00 	-19.63 	
0.00 	0.00 	0.00 	0.17 	0.09 	1.12 	0.05 	-0.09 	0.48 	12.30 	2.64 	-2.64 	12.09 	12.00 	24.41 	101564.00 	1.00 	-19.88 	
0.00 	0.00 	0.00 	0.16 	0.08 	1.12 	0.10 	0.17 	0.73 	12.60 	2.93 	-3.22 	13.09 	13.08 	24.42 	101560.00 	1.00 	-19.54 	
0.00 	0.00 	0.00 	0.17 	0.09 	1.12 	-0.16 	-0.21 	0.54 	12.01 	2.93 	-2.93 	13.71 	13.64 	24.43 	101562.00 	1.00 	-19.71 	
0.00 	0.00 	0.00 	0.24 	0.22 	1.04 	-9.43 	-28.68 	2.02 	12.60 	2.93 	-2.93 	13.09 	12.32 	24.43 	101562.00 	1.00 	-19.71 	
0.00 	0.00 	0.00 	0.21 	0.21 	1.09 	0.21 	-0.39 	0.73 	12.89 	3.22 	-3.52 	14.04 	13.91 	24.44 	101562.00 	1.00 	-19.71 	
0.00 	0.00 	0.00 	0.26 	0.14 	1.13 	10.78 	-2.23 	8.13 	12.60 	3.22 	-2.64 	14.35 	13.54 	24.44 	101563.00 	1.00 	-19.80 	
0.00 	0.00 	0.00 	0.25 	0.21 	1.09 	0.29 	-0.13 	0.74 	12.60 	3.52 	-2.93 	15.59 	14.57 	24.44 	101562.00 	1.00 	-19.71 	
0.00 	0.00 	0.00 	0.25 	0.21 	1.09 	0.12 	0.10 	1.17 	13.18 	2.93 	-2.64 	12.53 	11.35 	24.44 	101564.00 	1.00 	-19.88 	
0.00 	0.00 	0.00 	0.25 	0.20 	1.09 	-0.01 	-0.16 	1.14 	12.60 	3.22 	-2.93 	14.35 	13.38 	24.45 	101568.00 	1.00 	-20.21 	
0.00 	0.00 	0.00 	0.72 	0.41 	0.59 	84.39 	-63.43 	-20.73 	12.89 	2.34 	1.46 	10.30 	332.35 	24.73 	101565.00 	1.00 	-19.96 	
0.00 	0.00 	0.00 	-1.03 	0.18 	0.08 	-28.98 	16.06 	-91.69 	19.92 	-1.76 	1.46 	354.96 	 NAN 	24.72 	101563.00 	1.00 	-19.80 	
0.00 	0.00 	0.00 	-1.03 	0.08 	1.10 	9.48 	-68.95 	155.42 	18.16 	-7.03 	-3.22 	338.84 	 NAN 	24.75 	101565.00 	1.00 	-19.96 	
0.00 	0.00 	0.00 	0.01 	0.01 	1.12 	-5.22 	-11.18 	-3.40 	18.16 	-7.62 	-3.81 	337.25 	337.43 	24.69 	101562.00 	1.00 	-19.71 	
0.00 	0.00 	0.00 	0.04 	0.03 	1.13 	0.27 	-0.14 	-2.56 	18.46 	-6.74 	-4.10 	339.94 	340.36 	24.57 	101564.00 	1.00 	-19.88 	
0.00 	0.00 	0.00 	-0.07 	0.04 	0.99 	0.24 	34.53 	56.05 	18.16 	-7.62 	-3.52 	337.25 	337.48 	24.40 	101564.00 	1.00 	-19.88 	
0.00 	0.00 	0.00 	0.03 	0.02 	1.14 	1.21 	-4.04 	5.58 	18.46 	-3.81 	-4.39 	348.34 	348.64 	24.29 	101565.00 	1.00 	-19.96 	
0.00 	0.00 	0.00 	0.03 	0.05 	1.15 	17.12 	0.39 	-7.21 	16.70 	-0.29 	-4.10 	358.99 	359.56 	24.18 	101565.00 	1.00 	-19.96 	
0.00 	0.00 	0.00 	0.02 	0.05 	1.12 	-2.04 	-0.35 	0.14 	17.87 	-0.59 	-4.10 	358.12 	358.70 	24.10 	101567.00 	1.00 	-20.13 	
0.00 	0.00 	0.00 	0.02 	0.06 	1.13 	-3.13 	1.91 	-2.13 	17.58 	-0.88 	-3.22 	357.14 	357.66 	24.07 	101565.00 	1.00 	-19.96 	
0.00 	0.00 	0.00 	0.03 	0.06 	1.13 	0.26 	-0.09 	0.73 	17.87 	-0.29 	-4.10 	359.06 	359.73 	24.06 	101567.00 	1.00 	-20.13 	
0.00 	0.00 	0.00 	0.03 	0.06 	1.14 	17.44 	2.49 	-1.12 	18.46 	-1.46 	-3.81 	355.46 	356.05 	24.03 	101565.00 	1.00 	-19.96 	
0.00 	0.00 	0.00 	0.01 	0.04 	1.14 	-1.55 	-0.07 	0.96 	18.16 	-0.88 	-3.81 	357.23 	357.74 	24.01 	101563.00 	1.00 	-19.80 	
0.00 	0.00 	0.00 	0.02 	0.06 	1.13 	-3.64 	-0.13 	-0.69 	19.04 	0.29 	-3.52 	0.88 	1.39 	23.97 	101567.00 	1.00 	-20.13 	
0.00 	0.00 	0.00 	0.04 	0.03 	1.13 	0.33 	0.08 	0.76 	20.21 	-0.59 	-2.64 	358.34 	358.51 	23.91 	101565.00 	1.00 	-19.96 	
0.00 	0.00 	0.00 	0.04 	0.04 	1.13 	1.24 	0.12 	-0.30 	20.51 	-1.17 	-2.64 	356.73 	356.93 	23.83 	101564.00 	1.00 	-19.88 	
0.00 	0.00 	0.00 	0.04 	0.04 	1.13 	-5.61 	-0.63 	1.65 	19.63 	-1.17 	-2.93 	356.58 	356.87 	23.80 	101565.00 	1.00 	-19.96 	
0.00 	0.00 	0.00 	0.03 	0.05 	1.13 	0.47 	-0.18 	0.66 	20.51 	-0.59 	-2.64 	358.36 	358.65 	23.78 	101566.00 	1.00 	-20.04 	
0.00 	0.00 	0.00 	0.04 	0.05 	1.14 	0.31 	-0.08 	0.60 	20.51 	-0.29 	-2.93 	359.18 	359.52 	23.77 	101568.00 	1.00 	-20.21 	
0.00 	0.00 	0.00 	0.03 	0.06 	1.13 	0.30 	-0.02 	0.65 	20.51 	-1.17 	-2.34 	356.73 	357.01 	23.75 	101564.00 	1.00 	-19.88 	
0.00 	0.00 	0.00 	0.04 	0.05 	1.13 	0.31 	-0.27 	0.56 	20.51 	-1.17 	-3.22 	356.73 	357.10 	23.75 	101562.00 	1.00 	-19.71 	
0.00 	0.00 	0.00 	0.03 	0.05 	1.13 	0.26 	0.24 	0.63 	20.21 	-0.88 	-2.34 	357.51 	357.76 	23.75 	101564.00 	1.00 	-19.88 	
0.00 	0.00 	0.00 	0.03 	0.05 	1.13 	0.47 	0.07 	0.40 	20.21 	-0.59 	-2.93 	358.34 	358.68 	23.74 	101564.00 	1.00 	-19.88 	
0.00 	0.00 	0.00 	0.03 	0.05 	1.13 	0.37 	-0.01 	0.90 	20.51 	-0.88 	-2.64 	357.55 	357.84 	23.73 	101561.00 	1.00 	-19.63 	
0.00 	0.00 	0.00 	0.03 	0.05 	1.13 	0.08 	0.09 	0.72 	20.21 	-0.88 	-2.34 	357.51 	357.77 	23.72 	101561.00 	1.00 	-19.63 	
0.00 	0.00 	0.00 	0.03 	0.05 	1.14 	0.20 	0.20 	0.50 	20.51 	-0.88 	-2.34 	357.55 	357.81 	23.72 	101562.00 	1.00 	-19.71 	
0.00 	0.00 	0.00 	0.03 	0.05 	1.12 	0.43 	-0.08 	0.79 	20.21 	-0.88 	-2.64 	357.51 	357.81 	23.70 	101561.00 	1.00 	-19.63 	
0.00 	0.00 	0.00 	0.04 	0.06 	1.13 	0.36 	-0.02 	0.51 	20.51 	-0.88 	-2.34 	357.55 	357.81 	23.70 	101563.00 	1.00 	-19.80 	
0.00 	0.00 	0.00 	0.03 	0.05 	1.13 	0.47 	-0.11 	0.74 	19.92 	-1.17 	-2.05 	356.63 	356.86 	23.69 	101562.00 	1.00 	-19.71 	
0.00 	0.00 	0.00 	0.03 	0.05 	1.13 	0.24 	-0.05 	0.60 	21.09 	-0.29 	-2.34 	359.20 	359.45 	23.69 	101563.00 	1.00 	-19.80 	
0.00 	0.00 	0.00 	0.03 	0.06 	1.13 	0.30 	-0.24 	0.87 	20.21 	-0.88 	-2.64 	357.51 	357.84 	23.68 	101563.00 	1.00 	-19.80 	
0.00 	0.00 	0.00 	0.03 	0.05 	1.13 	0.24 	-0.22 	0.78 	19.92 	-1.17 	-2.64 	356.63 	356.96 	23.68 	101563.00 	1.00 	-19.80 	
0.00 	0.00 	0.00 	0.03 	0.05 	1.13 	0.16 	0.30 	0.70 	21.09 	-1.17 	-2.64 	356.82 	357.11 	23.68 	101564.00 	1.00 	-19.88 	
0.00 	0.00 	0.00 	0.03 	0.05 	1.13 	0.33 	-0.18 	0.66 	19.92 	-1.17 	-2.93 	356.63 	357.00 	23.67 	101564.00 	1.00 	-19.88 	
0.00 	0.00 	0.00 	0.03 	0.05 	1.13 	0.26 	-0.02 	0.40 	20.51 	-0.88 	-2.93 	357.55 	357.89 	23.67 	101564.00 	1.00 	-19.88 	
0.00 	0.00 	0.00 	0.03 	0.05 	1.13 	0.43 	0.23 	0.82 	19.92 	-1.17 	-2.64 	356.63 	356.96 	23.67 	101563.00 	1.00 	-19.80 	
0.00 	0.00 	0.00 	0.03 	0.05 	1.13 	0.31 	0.05 	0.26 	20.21 	-0.29 	-2.93 	359.17 	359.52 	23.66 	101562.00 	1.00 	-19.71 	
0.00 	0.00 	0.00 	0.03 	0.06 	1.13 	0.25 	-0.29 	0.50 	20.80 	-0.29 	-2.34 	359.19 	359.45 	23.66 	101562.00 	1.00 	-19.71 	
0.00 	0.00 	0.00 	0.03 	0.05 	1.13 	0.35 	-0.15 	0.72 	20.21 	-1.17 	-2.64 	356.68 	357.00 	23.65 	101563.00 	1.00 	-19.80 	
0.00 	0.00 	0.00 	0.03 	0.05 	1.14 	-0.23 	0.02 	0.80 	19.92 	-0.59 	-3.22 	358.32 	358.73 	23.65 	101560.00 	1.00 	-19.54 	
0.00 	0.00 	0.00 	0.03 	0.05 	1.13 	0.31 	0.10 	0.52 	20.21 	-0.29 	-2.64 	359.17 	359.46 	23.65 	101562.00 	1.00 	-19.71 	
0.00 	0.00 	0.00 	0.03 	0.05 	1.13 	0.34 	-0.02 	0.89 	20.51 	-0.88 	-2.05 	357.55 	357.77 	23.64 	101561.00 	1.00 	-19.63 	
0.00 	0.00 	0.00 	0.03 	0.05 	1.13 	0.37 	-0.06 	0.79 	20.51 	-1.46 	-2.34 	355.91 	356.18 	23.64 	101562.00 	1.00 	-19.71 	
0.00 	0.00 	0.00 	0.03 	0.05 	1.13 	0.29 	0.08 	0.71 	19.92 	-0.88 	-2.34 	357.47 	357.74 	23.64 	101561.00 	1.00 	-19.63 	
0.00 	0.00 	0.00 	0.03 	0.06 	1.13 	0.19 	-0.16 	0.34 	19.92 	-1.17 	-2.64 	356.63 	356.97 	23.63 	101563.00 	1.00 	-19.80 	
0.00 	0.00 	0.00 	0.03 	0.05 	1.13 	0.43 	-0.10 	0.69 	19.92 	-0.59 	-2.34 	358.32 	358.56 	23.63 	101564.00 	1.00 	-19.88 	
0.00 	0.00 	0.00 	0.03 	0.06 	1.13 	0.52 	0.25 	0.63 	20.51 	-0.88 	-2.64 	357.55 	357.88 	23.63 	101562.00 	1.00 	-19.71 	
0.00 	0.00 	0.00 	0.03 	0.05 	1.13 	0.56 	-0.24 	0.61 	20.80 	-1.17 	-2.64 	356.78 	357.07 	23.62 	101563.00 	1.00 	-19.80 	
0.00 	0.00 	0.00 	0.03 	0.05 	1.13 	0.37 	0.14 	0.56 	20.51 	-0.88 	-2.34 	357.55 	357.80 	23.62 	101560.00 	1.00 	-19.54 	
0.00 	0.00 	0.00 	0.03 	0.05 	1.13 	0.23 	0.07 	0.60 	19.92 	-1.17 	-2.93 	356.63 	357.00 	23.62 	101558.00 	1.00 	-19.38 	
0.00 	0.00 	0.00 	0.03 	0.05 	1.13 	0.31 	-0.06 	0.49 	20.21 	-1.46 	-3.22 	355.86 	356.24 	23.62 	101564.00 	1.00 	-19.88 	
0.00 	0.00 	0.00 	0.03 	0.05 	1.13 	0.43 	0.14 	0.62 	20.51 	-0.29 	-2.64 	359.18 	359.48 	23.63 	101563.00 	1.00 	-19.80 	
0.00 	0.00 	0.00 	0.03 	0.05 	1.13 	0.36 	-0.05 	0.58 	20.80 	-0.88 	-2.64 	357.58 	357.87 	23.62 	101562.00 	1.00 	-19.71 	
0.00 	0.00 	0.00 	0.03 	0.05 	1.13 	0.25 	-0.14 	0.76 	20.21 	-1.17 	-2.64 	356.68 	357.00 	23.61 	101561.00 	1.00 	-19.63 	
0.00 	0.00 	0.00 	0.03 	0.06 	1.13 	0.37 	-0.13 	0.89 	20.80 	-0.59 	-2.64 	358.39 	358.70 	23.61 	101559.00 	1.00 	-19.46 	
0.00 	0.00 	0.00 	0.03 	0.05 	1.13 	0.45 	-0.02 	0.80 	20.51 	-0.88 	-3.22 	357.55 	357.94 	23.61 	101560.00 	1.00 	-19.54 	
0.00 	0.00 	0.00 	0.03 	0.05 	1.14 	0.34 	0.00 	0.42 	20.51 	-0.88 	-2.64 	357.55 	357.86 	23.62 	101562.00 	1.00 	-19.71 	
0.00 	0.00 	0.00 	0.04 	0.05 	1.13 	0.27 	-0.28 	0.66 	20.80 	-0.29 	-2.93 	359.19 	359.49 	23.61 	101564.00 	1.00 	-19.88 	
0.00 	0.00 	0.00 	0.03 	0.05 	1.13 	0.33 	-0.21 	0.82 	20.80 	-0.88 	-1.76 	357.58 	357.74 	23.60 	101561.00 	1.00 	-19.63 	
0.00 	0.00 	0.00 	0.03 	0.05 	1.13 	0.11 	0.18 	0.23 	20.21 	-1.17 	-2.64 	356.68 	356.99 	23.60 	101564.00 	1.00 	-19.88 	
0.00 	0.00 	0.00 	0.03 	0.05 	1.13 	0.27 	-0.05 	0.59 	20.51 	-1.17 	-2.34 	356.73 	356.99 	23.62 	101563.00 	1.00 	-19.80 	
0.00 	0.00 	0.00 	0.03 	0.05 	1.13 	0.31 	-0.06 	0.45 	20.80 	-0.88 	-2.93 	357.58 	357.89 	23.61 	101564.00 	1.00 	-19.88 	
0.00 	0.00 	0.00 	0.03 	0.05 	1.14 	0.29 	-0.03 	0.49 	20.51 	-1.17 	-2.64 	356.73 	357.02 	23.62 	101566.00 	1.00 	-20.04 	
0.00 	0.00 	0.00 	0.03 	0.05 	1.13 	0.45 	0.04 	0.54 	20.21 	-0.88 	-3.22 	357.51 	357.88 	23.61 	101563.00 	1.00 	-19.80 	
0.00 	0.00 	0.00 	0.04 	0.05 	1.13 	0.11 	-0.08 	0.57 	20.51 	-0.88 	-2.64 	357.55 	357.82 	23.61 	101563.00 	1.00 	-19.80 	
0.00 	0.00 	0.00 	0.03 	0.05 	1.13 	0.05 	-0.30 	0.77 	20.21 	-0.29 	-2.93 	359.17 	359.49 	23.60 	101563.00 	1.00 	-19.80 	
0.00 	0.00 	0.00 	0.03 	0.05 	1.13 	0.13 	-0.30 	0.42 	20.51 	-0.88 	-2.93 	357.55 	357.88 	23.61 	101562.00 	1.00 	-19.71 	
0.00 	0.00 	0.00 	0.03 	0.05 	1.13 	0.17 	0.25 	0.91 	20.21 	-0.29 	-2.34 	359.17 	359.41 	23.60 	101560.00 	1.00 	-19.54 	
0.00 	0.00 	0.00 	0.03 	0.05 	1.13 	0.23 	-0.22 	0.64 	20.51 	-0.59 	-2.64 	358.36 	358.63 	23.60 	101563.00 	1.00 	-19.80 	
0.00 	0.00 	0.00 	0.03 	0.05 	1.13 	0.24 	-0.11 	0.81 	20.21 	-0.88 	-3.22 	357.51 	357.88 	23.61 	101560.00 	1.00 	-19.54 	
0.00 	0.00 	0.00 	0.03 	0.05 	1.13 	0.25 	-0.08 	0.40 	20.21 	-0.59 	-2.34 	358.34 	358.57 	23.61 	101562.00 	1.00 	-19.71 	
0.00 	0.00 	0.00 	0.03 	0.05 	1.13 	0.33 	-0.07 	0.24 	19.92 	-0.88 	-2.64 	357.47 	357.76 	23.61 	101563.00 	1.00 	-19.80 	
0.00 	0.00 	0.00 	0.04 	0.05 	1.13 	0.16 	0.01 	0.37 	20.21 	-0.29 	-3.52 	359.17 	359.55 	23.60 	101560.00 	1.00 	-19.54 	
0.00 	0.00 	0.00 	0.03 	0.05 	1.13 	0.43 	-0.22 	0.69 	20.21 	-0.88 	-2.93 	357.51 	357.84 	23.60 	101563.00 	1.00 	-19.80 	
0.00 	0.00 	0.00 	0.03 	0.05 	1.13 	0.18 	-0.19 	0.60 	20.51 	-1.17 	-2.34 	356.73 	356.97 	23.61 	101562.00 	1.00 	-19.71 	
0.00 	0.00 	0.00 	0.03 	0.05 	1.14 	0.31 	0.06 	0.53 	20.21 	-0.88 	-3.22 	357.51 	357.86 	23.60 	101564.00 	1.00 	-19.88 	
0.00 	0.00 	0.00 	0.03 	0.05 	1.13 	0.37 	-0.19 	0.80 	20.21 	-0.59 	-3.22 	358.34 	358.69 	23.60 	101562.00 	1.00 	-19.71 	
0.00 	0.00 	0.00 	0.03 	0.05 	1.13 	0.11 	-0.28 	0.70 	20.51 	-0.88 	-3.22 	357.55 	357.90 	23.59 	101564.00 	1.00 	-19.88 	
0.00 	0.00 	0.00 	0.03 	0.05 	1.13 	0.31 	0.00 	0.69 	20.51 	-0.59 	-3.22 	358.36 	358.72 	23.59 	101562.00 	1.00 	-19.71 	
0.00 	0.00 	0.00 	0.03 	0.05 	1.13 	0.23 	-0.31 	0.69 	19.92 	-0.59 	-2.93 	358.32 	358.62 	23.59 	101563.00 	1.00 	-19.80 	
0.00 	0.00 	0.00 	0.03 	0.04 	1.14 	0.25 	-0.07 	0.82 	20.51 	-1.17 	-2.64 	356.73 	356.99 	23.59 	101563.00 	1.00 	-19.80 	
0.00 	0.00 	0.00 	0.03 	0.05 	1.13 	0.47 	0.10 	0.76 	20.51 	-0.59 	-3.22 	358.36 	358.74 	23.60 	101565.00 	1.00 	-19.96 	
0.00 	0.00 	0.00 	0.04 	0.05 	1.13 	0.02 	0.08 	0.89 	19.92 	-0.88 	-3.22 	357.47 	357.85 	23.59 	101562.00 	1.00 	-19.71 	
0.00 	0.00 	0.00 	0.03 	0.05 	1.13 	0.46 	0.11 	0.59 	20.21 	-0.59 	-2.64 	358.34 	358.63 	23.60 	101563.00 	1.00 	-19.80 	
0.00 	0.00 	0.00 	0.03 	0.05 	1.14 	0.26 	0.23 	0.34 	20.21 	-0.88 	-3.52 	357.51 	357.90 	23.59 	101564.00 	1.00 	-19.88 	
0.00 	0.00 	0.00 	0.03 	0.05 	1.13 	0.27 	-0.11 	0.65 	20.80 	-0.59 	-2.93 	358.39 	358.68 	23.59 	101563.00 	1.00 	-19.80 	
0.00 	0.00 	0.00 	0.04 	0.05 	1.13 	0.11 	-0.24 	0.58 	20.51 	-1.17 	-3.22 	356.73 	357.10 	23.59 	101564.00 	1.00 	-19.88 	
0.00 	0.00 	0.00 	0.04 	0.04 	1.13 	0.35 	0.06 	0.70 	20.51 	-0.88 	-2.93 	357.55 	357.81 	23.59 	101564.00 	1.00 	-19.88 	
0.00 	0.00 	0.00 	0.03 	0.05 	1.13 	0.26 	-0.05 	0.49 	20.21 	-0.59 	-2.64 	358.34 	358.63 	23.60 	101566.00 	1.00 	-20.04 	
0.00 	0.00 	0.00 	0.03 	0.05 	1.13 	0.31 	-0.19 	0.74 	20.21 	-0.59 	-2.64 	358.34 	358.61 	23.59 	101564.00 	1.00 	-19.88 	
0.00 	0.00 	0.00 	0.03 	0.05 	1.13 	0.50 	-0.12 	0.60 	20.21 	-1.17 	-2.34 	356.68 	356.92 	23.60 	101565.00 	1.00 	-19.96 	
0.00 	0.00 	0.00 	0.04 	0.05 	1.13 	0.18 	-0.11 	0.83 	19.92 	-0.29 	-2.93 	359.16 	359.47 	23.59 	101564.00 	1.00 	-19.88 	
0.00 	0.00 	0.00 	0.04 	0.05 	1.13 	0.18 	0.01 	0.28 	20.51 	-0.88 	-2.93 	357.55 	357.84 	23.59 	101565.00 	1.00 	-19.96 	
0.00 	0.00 	0.00 	0.03 	0.05 	1.13 	0.40 	0.08 	0.95 	20.21 	-0.29 	-2.93 	359.17 	359.48 	23.59 	101561.00 	1.00 	-19.63 	
0.00 	0.00 	0.00 	0.03 	0.05 	1.13 	0.48 	-0.22 	0.48 	19.63 	-0.29 	-2.64 	359.14 	359.43 	23.59 	101561.00 	1.00 	-19.63 	
0.00 	0.00 	0.00 	0.03 	0.05 	1.13 	0.33 	0.02 	0.74 	20.51 	-0.88 	-3.22 	357.55 	357.88 	23.58 	101562.00 	1.00 	-19.71 	
0.00 	0.00 	0.00 	0.04 	0.04 	1.13 	0.31 	0.11 	0.69 	20.21 	-0.88 	-3.22 	357.51 	357.84 	23.59 	101562.00 	1.00 	-19.71 	
0.00 	0.00 	0.00 	0.03 	0.05 	1.14 	0.34 	-0.14 	0.56 	20.51 	-1.17 	-2.93 	356.73 	357.06 	23.59 	101562.00 	1.00 	-19.71 	
0.00 	0.00 	0.00 	0.03 	0.05 	1.13 	0.24 	-0.10 	0.69 	20.21 	0.00 	-2.93 	0.00 	0.31 	23.59 	101562.00 	1.00 	-19.71 	
0.00 	0.00 	0.00 	0.03 	0.05 	1.13 	-0.10 	-0.04 	0.94 	20.51 	-0.59 	-2.64 	358.36 	358.64 	23.59 	101558.00 	1.00 	-19.38 	
0.00 	0.00 	0.00 	0.04 	0.05 	1.13 	0.63 	0.03 	0.69 	19.63 	-0.88 	-2.93 	357.44 	357.76 	23.59 	101562.00 	1.00 	-19.71 	
0.00 	0.00 	0.00 	0.03 	0.05 	1.13 	0.28 	-0.01 	0.70 	19.63 	-0.88 	-2.93 	357.44 	357.75 	23.60 	101561.00 	1.00 	-19.63 	
0.00 	0.00 	0.00 	0.04 	0.05 	1.14 	0.29 	0.17 	0.44 	20.21 	-0.59 	-2.64 	358.34 	358.61 	23.60 	101563.00 	1.00 	-19.80 	
0.00 	0.00 	0.00 	0.03 	0.05 	1.13 	0.37 	0.16 	0.60 	20.51 	-0.59 	-2.93 	358.36 	358.67 	23.59 	101561.00 	1.00 	-19.63 	
0.00 	0.00 	0.00 	0.04 	0.04 	1.13 	0.49 	-0.11 	0.61 	20.80 	-0.88 	-2.93 	357.58 	357.85 	23.59 	101560.00 	1.00 	-19.54 	
0.00 	0.00 	0.00 	0.04 	0.05 	1.13 	0.20 	-0.08 	0.54 	20.21 	-0.29 	-2.93 	359.17 	359.47 	23.58 	101561.00 	1.00 	-19.63 	
0.00 	0.00 	0.00 	0.03 	0.05 	1.13 	0.43 	-0.11 	0.49 	19.92 	-0.29 	-3.22 	359.16 	359.49 	23.59 	101562.00 	1.00 	-19.71 	
0.00 	0.00 	0.00 	0.04 	0.05 	1.12 	0.00 	0.16 	0.66 	19.63 	-0.59 	-3.22 	358.29 	358.66 	23.59 	101563.00 	1.00 	-19.80 	
0.00 	0.00 	0.00 	0.04 	0.05 	1.13 	0.58 	0.15 	0.75 	20.21 	-0.88 	-3.22 	357.51 	357.85 	23.59 	101565.00 	1.00 	-19.96 	
0.00 	0.00 	0.00 	0.04 	0.04 	1.13 	0.33 	0.05 	0.44 	19.92 	-0.59 	-2.64 	358.32 	358.56 	23.58 	101560.00 	1.00 	-19.54 	
0.00 	0.00 	0.00 	0.03 	0.05 	1.13 	0.65 	-0.05 	0.57 	20.21 	-0.88 	-2.64 	357.51 	357.79 	23.58 	101559.00 	1.00 	-19.46 	
0.00 	0.00 	0.00 	0.03 	0.05 	1.13 	0.35 	-0.08 	0.49 	20.51 	-0.88 	-2.64 	357.55 	357.83 	23.58 	101566.00 	1.00 	-20.04 	
0.00 	0.00 	0.00 	0.04 	0.04 	1.14 	0.28 	-0.33 	0.78 	20.21 	-0.29 	-2.93 	359.17 	359.44 	23.57 	101562.00 	1.00 	-19.71 	
0.00 	0.00 	0.00 	0.03 	0.04 	1.13 	0.33 	0.11 	0.62 	20.21 	-1.17 	-2.93 	356.68 	356.98 	23.57 	101563.00 	1.00 	-19.80 	
0.00 	0.00 	0.00 	0.03 	0.05 	1.13 	0.41 	0.18 	0.63 	20.80 	-0.59 	-2.93 	358.39 	358.71 	23.57 	101562.00 	1.00 	-19.71 	
0.00 	0.00 	0.00 	0.04 	0.05 	1.14 	0.36 	0.19 	0.88 	19.92 	-0.88 	-2.93 	357.47 	357.78 	23.58 	101563.00 	1.00 	-19.80 	
0.00 	0.00 	0.00 	0.03 	0.04 	1.13 	0.43 	0.25 	0.70 	20.51 	0.00 	-3.22 	0.00 	0.32 	23.57 	101561.00 	1.00 	-19.63 	
0.00 	0.00 	0.00 	0.03 	0.05 	1.13 	0.40 	-0.03 	0.63 	19.63 	-0.88 	-2.64 	357.44 	357.71 	23.57 	101559.00 	1.00 	-19.46 	
0.00 	0.00 	0.00 	0.03 	0.05 	1.13 	0.36 	0.05 	0.85 	19.92 	-0.88 	-2.93 	357.47 	357.78 	23.57 	101560.00 	1.00 	-19.54 	
0.00 	0.00 	0.00 	0.03 	0.05 	1.12 	0.26 	0.11 	0.60 	19.92 	-0.29 	-2.05 	359.16 	359.36 	23.58 	101565.00 	1.00 	-19.96 	
0.00 	0.00 	0.00 	0.03 	0.04 	1.13 	3.91 	0.22 	0.31 	20.51 	-0.59 	-2.64 	358.36 	358.60 	23.58 	101564.00 	1.00 	-19.88 	
0.00 	0.00 	0.00 	0.04 	0.05 	1.13 	0.47 	-0.38 	0.66 	20.51 	0.00 	-2.64 	0.00 	0.25 	23.58 	101564.00 	1.00 	-19.88 	
0.00 	0.00 	0.00 	0.04 	0.05 	1.13 	0.37 	-0.15 	0.89 	21.09 	-0.29 	-2.93 	359.20 	359.48 	23.58 	101564.00 	1.00 	-19.88 	
0.00 	0.00 	0.00 	0.03 	0.05 	1.14 	0.15 	-0.22 	0.68 	20.80 	-0.88 	-3.22 	357.58 	357.91 	23.57 	101564.00 	1.00 	-19.88 	
0.00 	0.00 	0.00 	0.03 	0.04 	1.13 	0.40 	-0.08 	0.56 	20.21 	-0.59 	-2.64 	358.34 	358.59 	23.58 	101563.00 	1.00 	-19.80 	
0.00 	0.00 	0.00 	0.04 	0.05 	1.13 	0.41 	0.19 	0.74 	20.21 	-0.59 	-2.93 	358.34 	358.64 	23.57 	101563.00 	1.00 	-19.80 	
0.00 	0.00 	0.00 	0.03 	0.04 	1.13 	0.38 	-0.04 	0.28 	20.51 	-0.59 	-2.64 	358.36 	358.61 	23.58 	101564.00 	1.00 	-19.88 	
0.00 	0.00 	0.00 	0.03 	0.05 	1.13 	0.37 	0.39 	0.76 	19.63 	-0.88 	-3.52 	357.44 	357.83 	23.57 	101565.00 	1.00 	-19.96 	
0.00 	0.00 	0.00 	0.03 	0.05 	1.13 	0.40 	0.10 	0.36 	20.51 	-0.29 	-2.64 	359.18 	359.46 	23.56 	101564.00 	1.00 	-19.88 	
0.00 	0.00 	0.00 	0.04 	0.05 	1.13 	0.17 	-0.19 	0.54 	20.51 	-0.88 	-2.93 	357.55 	357.86 	23.58 	101564.00 	1.00 	-19.88 	
0.00 	0.00 	0.00 	0.04 	0.04 	1.13 	0.26 	0.19 	0.63 	19.92 	-0.88 	-2.93 	357.47 	357.77 	23.57 	101563.00 	1.00 	-19.80 	
0.00 	0.00 	0.00 	0.03 	0.05 	1.12 	0.45 	-0.08 	0.68 	20.80 	-0.59 	-3.52 	358.39 	358.76 	23.58 	101564.00 	1.00 	-19.88 	
0.00 	0.00 	0.00 	0.03 	0.05 	1.13 	0.43 	-0.08 	1.05 	20.51 	-1.17 	-2.93 	356.73 	357.05 	23.57 	101564.00 	1.00 	-19.88 	
0.00 	0.00 	0.00 	0.04 	0.04 	1.13 	0.35 	-0.01 	0.80 	19.63 	-0.59 	-3.22 	358.29 	358.62 	23.57 	101563.00 	1.00 	-19.80 	
0.00 	0.00 	0.00 	0.03 	0.05 	1.13 	0.50 	-0.08 	0.12 	19.92 	-0.59 	-3.22 	358.32 	358.67 	23.57 	101561.00 	1.00 	-19.63 	
0.00 	0.00 	0.00 	0.04 	0.05 	1.13 	0.32 	-0.03 	0.47 	20.51 	-0.59 	-3.22 	358.36 	358.70 	23.56 	101564.00 	1.00 	-19.88 	
0.00 	0.00 	0.00 	0.03 	0.05 	1.13 	0.47 	0.02 	0.79 	19.92 	0.00 	-3.22 	0.00 	0.34 	23.57 	101561.00 	1.00 	-19.63 	
0.00 	0.00 	0.00 	0.03 	0.05 	1.13 	0.13 	0.17 	0.60 	19.92 	-1.17 	-2.34 	356.63 	356.87 	23.58 	101565.00 	1.00 	-19.96 	
0.00 	0.00 	0.00 	0.03 	0.05 	1.13 	0.25 	0.08 	0.73 	19.92 	-0.88 	-2.64 	357.47 	357.75 	23.57 	101564.00 	1.00 	-19.88 	
0.00 	0.00 	0.00 	0.04 	0.05 	1.14 	0.25 	0.10 	0.55 	19.92 	-1.17 	-3.22 	356.63 	356.98 	23.57 	101563.00 	1.00 	-19.80 	
0.00 	0.00 	0.00 	0.03 	0.05 	1.13 	0.28 	0.05 	0.63 	20.21 	-0.88 	-3.52 	357.51 	357.91 	23.58 	101562.00 	1.00 	-19.71 	
0.00 	0.00 	0.00 	0.03 	0.05 	1.14 	0.62 	0.05 	0.66 	21.09 	-0.59 	-3.52 	358.41 	358.77 	23.58 	101564.00 	1.00 	-19.88 	
0.00 	0.00 	0.00 	0.03 	0.05 	1.13 	0.34 	-0.08 	0.85 	20.51 	-0.88 	-3.22 	357.55 	357.89 	23.58 	101566.00 	1.00 	-20.04 	
0.00 	0.00 	0.00 	0.03 	0.05 	1.13 	0.18 	0.10 	0.87 	20.21 	-0.88 	-2.34 	357.51 	357.74 	23.58 	101566.00 	1.00 	-20.04 	
0.00 	0.00 	0.00 	0.03 	0.04 	1.13 	0.24 	0.14 	0.66 	20.21 	-0.88 	-2.64 	357.51 	357.76 	23.57 	101565.00 	1.00 	-19.96 	
0.00 	0.00 	0.00 	0.03 	0.05 	1.12 	0.17 	0.12 	0.56 	20.21 	-0.29 	-2.93 	359.17 	359.47 	23.57 	101562.00 	1.00 	-19.71 	
0.00 	0.00 	0.00 	0.03 	0.05 	1.13 	0.38 	-0.27 	0.58 	20.51 	-1.17 	-2.93 	356.73 	357.03 	23.56 	101564.00 	1.00 	-19.88 	
0.00 	0.00 	0.00 	0.03 	0.04 	1.13 	0.10 	-0.18 	0.57 	20.21 	-0.59 	-3.22 	358.34 	358.68 	23.56 	101568.00 	1.00 	-20.21 	
0.00 	0.00 	0.00 	0.03 	0.04 	1.13 	0.37 	0.02 	0.87 	20.21 	-0.59 	-2.64 	358.34 	358.59 	23.56 	101565.00 	1.00 	-19.96 	
0.00 	0.00 	0.00 	0.04 	0.05 	1.13 	0.28 	-0.01 	0.56 	19.92 	-0.88 	-2.93 	357.47 	357.79 	23.55 	101562.00 	1.00 	-19.71 	
0.00 	0.00 	0.00 	0.03 	0.05 	1.14 	0.11 	0.10 	0.36 	20.51 	-0.59 	-3.22 	358.36 	358.72 	23.56 	101564.00 	1.00 	-19.88 	
0.00 	0.00 	0.00 	0.03 	0.05 	1.13 	0.23 	0.06 	0.44 	20.21 	-1.17 	-3.22 	356.68 	357.03 	23.56 	101564.00 	1.00 	-19.88 	
0.00 	0.00 	0.00 	0.04 	0.05 	1.13 	0.41 	-0.05 	0.66 	20.21 	-0.29 	-3.22 	359.17 	359.52 	23.56 	101565.00 	1.00 	-19.96 	
0.00 	0.00 	0.00 	0.03 	0.05 	1.12 	0.28 	-0.05 	0.23 	20.21 	-0.88 	-3.81 	357.51 	357.94 	23.55 	101563.00 	1.00 	-19.80 	
0.00 	0.00 	0.00 	0.03 	0.05 	1.13 	0.06 	-0.02 	0.63 	20.51 	-0.88 	-2.64 	357.55 	357.80 	23.56 	101565.00 	1.00 	-19.96 	
0.00 	0.00 	0.00 	0.03 	0.05 	1.13 	0.33 	-0.16 	0.69 	20.80 	-0.29 	-3.22 	359.19 	359.54 	23.56 	101565.00 	1.00 	-19.96 	
0.00 	0.00 	0.00 	0.03 	0.05 	1.13 	0.54 	-0.13 	0.72 	20.21 	-0.29 	-2.93 	359.17 	359.47 	23.56 	101564.00 	1.00 	-19.88 	
0.00 	0.00 	0.00 	0.03 	0.04 	1.13 	0.96 	-0.04 	0.61 	19.63 	-1.46 	-3.22 	355.73 	356.09 	23.55 	101563.00 	1.00 	-19.80 	
0.00 	0.00 	0.00 	0.03 	0.04 	1.13 	0.37 	-0.11 	0.75 	19.92 	-1.17 	-3.81 	356.63 	357.05 	23.56 	101564.00 	1.00 	-19.88 	
0.00 	0.00 	0.00 	0.03 	0.05 	1.13 	0.40 	0.14 	0.73 	20.21 	-1.17 	-3.22 	356.68 	357.03 	23.56 	101563.00 	1.00 	-19.80 	
0.00 	0.00 	0.00 	0.03 	0.05 	1.13 	0.12 	-0.02 	0.70 	20.80 	-2.05 	-3.22 	354.37 	354.71 	23.56 	101567.00 	1.00 	-20.13 	
0.00 	0.00 	0.00 	0.03 	0.05 	1.14 	0.26 	0.14 	0.48 	20.51 	-0.88 	-3.22 	357.55 	357.89 	23.55 	101565.00 	1.00 	-19.96 	
0.00 	0.00 	0.00 	0.03 	0.05 	1.14 	0.24 	0.21 	0.63 	20.51 	-1.46 	-3.22 	355.91 	356.25 	23.55 	101565.00 	1.00 	-19.96 	
0.00 	0.00 	0.00 	0.03 	0.04 	1.13 	0.13 	-0.08 	0.78 	20.51 	-1.46 	-3.22 	355.91 	356.24 	23.56 	101566.00 	1.00 	-20.04 	
0.00 	0.00 	0.00 	0.03 	0.05 	1.13 	0.25 	0.13 	0.60 	21.09 	-1.46 	-3.52 	356.03 	356.42 	23.55 	101565.00 	1.00 	-19.96 	
0.00 	0.00 	0.00 	0.04 	0.04 	1.13 	0.27 	0.02 	0.63 	20.51 	-1.46 	-3.52 	355.91 	356.28 	23.56 	101567.00 	1.00 	-20.13 	
0.00 	0.00 	0.00 	0.03 	0.05 	1.13 	0.00 	0.11 	-0.74 	20.21 	-1.17 	-3.22 	356.68 	357.06 	23.55 	101567.00 	1.00 	-20.13 	
0.00 	0.00 	0.00 	0.03 	0.04 	1.14 	0.40 	0.24 	0.44 	20.51 	-1.17 	-3.22 	356.73 	357.04 	23.56 	101567.00 	1.00 	-20.13 	
0.00 	0.00 	0.00 	0.03 	0.04 	1.13 	0.51 	0.18 	0.56 	20.21 	-1.76 	-2.93 	355.03 	355.34 	23.56 	101565.00 	1.00 	-19.96 	
0.00 	0.00 	0.00 	0.03 	0.04 	1.14 	0.21 	0.21 	0.71 	20.80 	-1.76 	-3.52 	355.17 	355.54 	23.56 	101567.00 	1.00 	-20.13 	
0.00 	0.00 	0.00 	0.04 	0.05 	1.13 	0.35 	0.12 	0.83 	20.51 	-0.59 	-3.22 	358.36 	358.68 	23.56 	101566.00 	1.00 	-20.04 	
0.00 	0.00 	0.00 	0.03 	0.04 	1.13 	0.32 	0.04 	0.64 	20.51 	-1.46 	-3.22 	355.91 	356.25 	23.56 	101563.00 	1.00 	-19.80 	
0.00 	0.00 	0.00 	0.04 	0.05 	1.13 	0.28 	-0.06 	0.72 	20.21 	-1.46 	-2.64 	355.86 	356.12 	23.56 	101564.00 	1.00 	-19.88 	
0.00 	0.00 	0.00 	0.03 	0.05 	1.14 	0.09 	0.19 	0.58 	20.21 	-1.17 	-3.52 	356.68 	357.08 	23.56 	101566.00 	1.00 	-20.04 	
0.00 	0.00 	0.00 	0.03 	0.05 	1.13 	0.06 	-0.08 	0.48 	19.92 	-1.46 	-3.52 	355.79 	356.22 	23.56 	101561.00 	1.00 	-19.63 	
0.00 	0.00 	0.00 	0.04 	0.05 	1.13 	-0.21 	-0.04 	0.69 	20.21 	-1.76 	-3.52 	355.03 	355.42 	23.56 	101566.00 	1.00 	-20.04 	
0.00 	0.00 	0.00 	0.04 	0.05 	1.13 	0.02 	0.03 	0.84 	20.21 	-1.17 	-3.52 	356.68 	357.07 	23.55 	101565.00 	1.00 	-19.96 	
0.00 	0.00 	0.00 	0.03 	0.05 	1.13 	0.28 	0.01 	0.67 	19.92 	-1.46 	-3.22 	355.79 	356.15 	23.56 	101564.00 	1.00 	-19.88 	
0.00 	0.00 	0.00 	0.03 	0.05 	1.13 	0.12 	-0.08 	0.27 	19.92 	-0.88 	-2.93 	357.47 	357.80 	23.56 	101565.00 	1.00 	-19.96 	
0.00 	0.00 	0.00 	0.03 	0.05 	1.14 	0.11 	-0.26 	0.78 	20.21 	-1.46 	-3.22 	355.86 	356.21 	23.56 	101566.00 	1.00 	-20.04 	
0.00 	0.00 	0.00 	0.03 	0.04 	1.13 	0.44 	-0.06 	0.57 	19.92 	-1.76 	-3.52 	354.96 	355.35 	23.56 	101564.00 	1.00 	-19.88 	
0.00 	0.00 	0.00 	0.03 	0.05 	1.13 	0.50 	0.04 	0.34 	20.80 	-0.88 	-3.22 	357.58 	357.92 	23.56 	101565.00 	1.00 	-19.96 	
0.00 	0.00 	0.00 	0.03 	0.04 	1.14 	-0.08 	0.04 	0.52 	19.92 	-0.59 	-3.52 	358.32 	358.69 	23.56 	101566.00 	1.00 	-20.04 	
0.00 	0.00 	0.00 	0.03 	0.05 	1.13 	0.27 	-0.15 	0.60 	20.51 	-1.17 	-3.22 	356.73 	357.07 	23.57 	101564.00 	1.00 	-19.88 	
0.00 	0.00 	0.00 	0.03 	0.04 	1.13 	0.43 	0.31 	0.51 	20.80 	-0.88 	-3.81 	357.58 	357.98 	23.57 	101568.00 	1.00 	-20.21 	
0.00 	0.00 	0.00 	0.04 	0.04 	1.13 	0.39 	0.05 	0.74 	20.80 	-1.17 	-3.81 	356.78 	357.16 	23.56 	101564.00 	1.00 	-19.88 	
0.00 	0.00 	0.00 	0.03 	0.04 	1.13 	0.26 	0.13 	0.79 	19.63 	-0.88 	-3.81 	357.44 	357.87 	23.56 	101564.00 	1.00 	-19.88 	
0.00 	0.00 	0.00 	0.03 	0.05 	1.13 	0.24 	0.14 	0.53 	20.80 	-1.46 	-3.52 	355.97 	356.42 	23.57 	101564.00 	1.00 	-19.88 	
0.00 	0.00 	0.00 	0.03 	0.04 	1.14 	0.19 	-0.28 	0.59 	19.92 	-0.88 	-4.10 	357.47 	357.86 	23.56 	101564.00 	1.00 	-19.88 	
0.00 	0.00 	0.00 	0.02 	0.04 	1.13 	-0.09 	0.04 	0.92 	20.21 	-1.46 	-3.22 	355.86 	356.23 	23.56 	101565.00 	1.00 	-19.96 	
0.00 	0.00 	0.00 	0.03 	0.04 	1.13 	0.22 	-0.11 	0.89 	20.80 	-0.88 	-3.81 	357.58 	357.96 	23.56 	101566.00 	1.00 	-20.04 	
0.00 	0.00 	0.00 	0.03 	0.04 	1.14 	0.34 	0.00 	0.89 	20.80 	-1.46 	-3.22 	355.97 	356.26 	23.55 	101566.00 	1.00 	-20.04 	
0.00 	0.00 	0.00 	0.04 	0.05 	1.13 	0.31 	-0.03 	0.93 	20.80 	-1.17 	-3.52 	356.78 	357.16 	23.55 	101565.00 	1.00 	-19.96 	
0.00 	0.00 	0.00 	0.03 	0.05 	1.13 	-0.20 	-0.06 	1.04 	20.51 	-0.88 	-3.22 	357.55 	357.88 	23.55 	101564.00 	1.00 	-19.88 	
0.00 	0.00 	0.00 	0.03 	0.05 	1.13 	0.28 	-0.22 	0.63 	20.21 	-1.17 	-3.52 	356.68 	357.08 	23.55 	101565.00 	1.00 	-19.96 	
0.00 	0.00 	0.00 	0.03 	0.04 	1.13 	0.09 	0.01 	0.63 	20.80 	-1.46 	-2.93 	355.97 	356.26 	23.55 	101566.00 	1.00 	-20.04 	
0.00 	0.00 	0.00 	0.04 	0.05 	1.13 	0.48 	0.37 	0.63 	20.21 	-1.17 	-3.52 	356.68 	357.05 	23.55 	101567.00 	1.00 	-20.13 	
0.00 	0.00 	0.00 	0.03 	0.05 	1.12 	0.09 	-0.08 	0.93 	20.21 	-0.59 	-2.93 	358.34 	358.65 	23.55 	101563.00 	1.00 	-19.80 	
0.00 	0.00 	0.00 	0.04 	0.05 	1.12 	0.14 	-0.21 	0.66 	20.21 	-1.46 	-3.22 	355.86 	356.20 	23.55 	101565.00 	1.00 	-19.96 	
0.00 	0.00 	0.00 	0.04 	0.05 	1.13 	0.09 	0.13 	0.78 	20.51 	-1.17 	-3.52 	356.73 	357.13 	23.53 	101563.00 	1.00 	-19.80 	
0.00 	0.00 	0.00 	0.03 	0.04 	1.13 	1.11 	-0.14 	0.93 	19.92 	-1.17 	-3.52 	356.63 	357.00 	23.54 	101567.00 	1.00 	-20.13 	
0.00 	0.00 	0.00 	0.03 	0.05 	1.13 	0.24 	0.33 	0.47 	20.21 	-1.46 	-3.52 	355.86 	356.26 	23.55 	101565.00 	1.00 	-19.96 	
0.00 	0.00 	0.00 	0.04 	0.05 	1.13 	-0.03 	-0.02 	0.56 	20.80 	-1.17 	-3.52 	356.78 	357.16 	23.54 	101565.00 	1.00 	-19.96 	
0.00 	0.00 	0.00 	0.03 	0.05 	1.13 	0.10 	0.10 	0.72 	19.92 	-1.17 	-3.22 	356.63 	356.98 	23.54 	101564.00 	1.00 	-19.88 	
0.00 	0.00 	0.00 	0.03 	0.05 	1.13 	0.05 	0.03 	0.78 	20.80 	-0.59 	-3.22 	358.39 	358.73 	23.54 	101565.00 	1.00 	-19.96 	
0.00 	0.00 	0.00 	0.04 	0.05 	1.13 	0.02 	-0.14 	0.60 	19.92 	-1.46 	-3.22 	355.79 	356.19 	23.54 	101565.00 	1.00 	-19.96 	
0.00 	0.00 	0.00 	0.04 	0.05 	1.13 	0.39 	-0.02 	0.69 	21.39 	-1.17 	-3.81 	356.86 	357.26 	23.54 	101565.00 	1.00 	-19.96 	
0.00 	0.00 	0.00 	0.03 	0.05 	1.13 	0.32 	0.25 	0.56 	20.21 	-1.46 	-3.81 	355.86 	356.30 	23.54 	101566.00 	1.00 	-20.04 	
0.00 	0.00 	0.00 	0.03 	0.05 	1.13 	0.52 	-0.08 	0.82 	21.09 	-1.17 	-2.93 	356.82 	357.11 	23.54 	101565.00 	1.00 	-19.96 	
0.00 	0.00 	0.00 	0.03 	0.04 	1.13 	0.16 	0.22 	0.68 	19.92 	-1.46 	-3.22 	355.79 	356.15 	23.54 	101566.00 	1.00 	-20.04 	
0.00 	0.00 	0.00 	0.04 	0.05 	1.14 	0.35 	0.14 	0.82 	19.92 	-1.46 	-2.93 	355.79 	356.11 	23.54 	101579.00 	1.00 	-21.12 	
0.00 	0.00 	0.00 	0.03 	0.05 	1.13 	0.21 	0.05 	0.68 	20.80 	-1.17 	-3.22 	356.78 	357.13 	23.54 	101576.00 	1.00 	-20.87 	
0.00 	0.00 	0.00 	0.04 	0.05 	1.13 	0.34 	0.08 	0.69 	20.21 	-1.17 	-3.22 	356.68 	357.03 	23.53 	101574.00 	1.00 	-20.71 	
0.00 	0.00 	0.00 	0.03 	0.04 	1.13 	0.19 	0.23 	0.92 	19.92 	-1.17 	-3.81 	356.63 	357.05 	23.54 	101574.00 	1.00 	-20.71 	
0.00 	0.00 	0.00 	0.04 	0.04 	1.13 	0.40 	0.00 	0.72 	20.21 	-1.46 	-3.52 	355.86 	356.20 	23.54 	101579.00 	1.00 	-21.12 	
0.00 	0.00 	0.00 	0.04 	0.04 	1.13 	0.18 	0.05 	0.56 	20.21 	-1.17 	-3.81 	356.68 	357.07 	23.55 	101579.00 	1.00 	-21.12 	
0.00 	0.00 	0.00 	0.03 	0.05 	1.14 	0.30 	0.07 	0.62 	20.21 	-1.17 	-3.52 	356.68 	357.09 	23.54 	101586.00 	1.00 	-21.70 	
0.00 	0.00 	0.00 	0.04 	0.05 	1.13 	0.31 	-0.02 	0.60 	20.21 	-1.17 	-3.22 	356.68 	357.02 	23.54 	101597.00 	1.00 	-22.62 	
0.00 	0.00 	0.00 	0.04 	0.05 	1.14 	0.37 	-0.03 	0.33 	20.21 	-0.88 	-3.52 	357.51 	357.88 	23.55 	101591.00 	1.00 	-22.12 	
0.00 	0.00 	0.00 	0.03 	0.04 	1.13 	0.29 	0.18 	0.58 	20.80 	-0.59 	-4.10 	358.39 	358.78 	23.55 	101598.00 	1.00 	-22.70 	
0.00 	0.00 	0.00 	0.03 	0.05 	1.14 	0.13 	-0.09 	0.53 	21.09 	-0.88 	-3.52 	357.61 	358.00 	23.54 	101595.00 	1.00 	-22.45 	
0.00 	0.00 	0.00 	0.03 	0.04 	1.14 	0.43 	0.11 	0.78 	20.21 	-1.46 	-3.81 	355.86 	356.26 	23.54 	101591.00 	1.00 	-22.12 	
0.00 	0.00 	0.00 	0.03 	0.05 	1.13 	0.43 	-0.05 	0.47 	20.80 	-1.46 	-3.52 	355.97 	356.37 	23.54 	101591.00 	1.00 	-22.12 	
0.00 	0.00 	0.00 	0.04 	0.05 	1.13 	0.43 	0.25 	0.88 	20.21 	-1.17 	-3.81 	356.68 	357.14 	23.54 	101587.00 	1.00 	-21.79 	
0.00 	0.00 	0.00 	0.03 	0.04 	1.13 	0.22 	-0.27 	0.79 	19.92 	-0.59 	-3.81 	358.32 	358.72 	23.54 	101581.00 	1.00 	-21.29 	
0.00 	0.00 	0.00 	0.03 	0.04 	1.13 	-0.08 	0.25 	0.94 	20.21 	-1.17 	-3.22 	356.68 	357.03 	23.54 	101579.00 	1.00 	-21.12 	
0.00 	0.00 	0.00 	0.03 	0.04 	1.13 	0.27 	-0.11 	0.83 	20.21 	-1.46 	-3.52 	355.86 	356.23 	23.54 	101587.00 	1.00 	-21.79 	
0.00 	0.00 	0.00 	0.03 	0.05 	1.13 	0.18 	0.03 	0.59 	20.51 	-0.59 	-3.52 	358.36 	358.75 	23.54 	101589.00 	1.00 	-21.95 	
0.00 	0.00 	0.00 	0.03 	0.05 	1.14 	0.17 	-0.07 	0.85 	20.51 	-0.88 	-2.64 	357.55 	357.84 	23.54 	101589.00 	1.00 	-21.95 	
0.00 	0.00 	0.00 	0.03 	0.04 	1.13 	0.16 	0.22 	0.77 	20.21 	-1.46 	-3.52 	355.86 	356.22 	23.55 	101589.00 	1.00 	-21.95 	
0.00 	0.00 	0.00 	0.03 	0.05 	1.13 	0.11 	0.03 	0.74 	20.51 	-1.17 	-3.52 	356.73 	357.13 	23.55 	101589.00 	1.00 	-21.95 	
0.00 	0.00 	0.00 	0.03 	0.04 	1.14 	-0.01 	0.19 	0.45 	20.51 	-1.17 	-3.52 	356.73 	357.10 	23.54 	101585.00 	1.00 	-21.62 	
0.00 	0.00 	0.00 	0.04 	0.05 	1.14 	0.26 	0.11 	0.68 	19.92 	-1.17 	-3.22 	356.63 	356.99 	23.54 	101590.00 	1.00 	-22.04 	
0.00 	0.00 	0.00 	0.03 	0.04 	1.13 	0.09 	-0.03 	0.78 	20.80 	-1.46 	-3.81 	355.97 	356.37 	23.54 	101585.00 	1.00 	-21.62 	
0.00 	0.00 	0.00 	0.03 	0.04 	1.13 	0.27 	0.27 	0.72 	19.63 	-0.88 	-3.52 	357.44 	357.83 	23.53 	101576.00 	1.00 	-20.87 	
0.00 	0.00 	0.00 	0.03 	0.05 	1.13 	0.20 	0.16 	0.69 	19.92 	-1.46 	-3.52 	355.79 	356.22 	23.54 	101577.00 	1.00 	-20.96 	
0.00 	0.00 	0.00 	0.04 	0.05 	1.13 	0.40 	-0.11 	0.82 	20.21 	-1.17 	-3.52 	356.68 	357.07 	23.54 	101573.00 	1.00 	-20.63 	
0.00 	0.00 	0.00 	0.03 	0.04 	1.13 	0.33 	0.14 	0.56 	20.21 	-0.59 	-3.81 	358.34 	358.75 	23.54 	101576.00 	1.00 	-20.87 	
0.00 	0.00 	0.00 	0.03 	0.05 	1.14 	0.55 	0.20 	0.79 	20.51 	-0.59 	-3.81 	358.36 	358.81 	23.54 	101576.00 	1.00 	-20.87 	
0.00 	0.00 	0.00 	0.03 	0.05 	1.13 	0.16 	0.06 	0.69 	20.80 	-1.46 	-3.22 	355.97 	356.31 	23.53 	101572.00 	1.00 	-20.54 	
0.00 	0.00 	0.00 	0.03 	0.05 	1.13 	0.17 	-0.05 	0.72 	20.21 	-1.17 	-3.22 	356.68 	357.05 	23.54 	101574.00 	1.00 	-20.71 	
0.00 	0.00 	0.00 	0.03 	0.04 	1.14 	0.02 	0.10 	0.74 	20.21 	-1.17 	-2.93 	356.68 	356.99 	23.53 	101569.00 	1.00 	-20.29 	
0.00 	0.00 	0.00 	0.03 	0.04 	1.14 	0.40 	0.01 	1.04 	20.51 	-0.88 	-2.93 	357.55 	357.84 	23.54 	101571.00 	1.00 	-20.46 	
0.00 	0.00 	0.00 	0.03 	0.05 	1.14 	0.05 	0.02 	0.89 	20.80 	-1.76 	-3.52 	355.17 	355.59 	23.54 	101570.00 	1.00 	-20.38 	
0.00 	0.00 	0.00 	0.04 	0.04 	1.13 	0.21 	-0.14 	1.01 	20.21 	-1.46 	-3.52 	355.86 	356.23 	23.54 	101573.00 	1.00 	-20.63 	
0.00 	0.00 	0.00 	0.03 	0.04 	1.13 	0.36 	-0.11 	0.70 	20.21 	-1.17 	-3.52 	356.68 	357.05 	23.54 	101571.00 	1.00 	-20.46 	
0.00 	0.00 	0.00 	0.03 	0.05 	1.13 	0.28 	0.05 	0.88 	20.51 	-1.17 	-3.22 	356.73 	357.08 	23.54 	101574.00 	1.00 	-20.71 	
0.00 	0.00 	0.00 	0.03 	0.05 	1.13 	0.32 	-0.19 	0.73 	19.92 	-1.46 	-3.52 	355.79 	356.19 	23.54 	101570.00 	1.00 	-20.38 	
0.00 	0.00 	0.00 	0.03 	0.05 	1.14 	0.25 	-0.27 	0.76 	20.21 	-2.05 	-3.52 	354.21 	354.61 	23.54 	101565.00 	1.00 	-19.96 	
0.00 	0.00 	0.00 	0.03 	0.04 	1.13 	0.14 	-0.02 	0.45 	21.09 	-0.59 	-3.22 	358.41 	358.71 	23.54 	101567.00 	1.00 	-20.13 	
0.00 	0.00 	0.00 	0.03 	0.04 	1.14 	0.16 	-0.03 	0.66 	20.21 	-1.46 	-3.52 	355.86 	356.24 	23.54 	101568.00 	1.00 	-20.21 	
0.00 	0.00 	0.00 	0.03 	0.04 	1.13 	0.27 	0.18 	0.49 	20.80 	-1.46 	-3.22 	355.97 	356.29 	23.54 	101565.00 	1.00 	-19.96 	
0.00 	0.00 	0.00 	0.03 	0.05 	1.13 	0.26 	-0.10 	0.91 	20.51 	-1.76 	-3.52 	355.10 	355.49 	23.54 	101567.00 	1.00 	-20.13 	
0.00 	0.00 	0.00 	0.03 	0.05 	1.13 	0.26 	-0.08 	0.79 	20.51 	-0.88 	-3.52 	357.55 	357.92 	23.55 	101569.00 	1.00 	-20.29 	
0.00 	0.00 	0.00 	0.03 	0.04 	1.13 	0.24 	-0.23 	0.69 	20.80 	-0.59 	-3.52 	358.39 	358.75 	23.55 	101567.00 	1.00 	-20.13 	
0.00 	0.00 	0.00 	0.03 	0.05 	1.13 	0.24 	0.46 	0.83 	20.21 	-1.46 	-3.52 	355.86 	356.26 	23.54 	101568.00 	1.00 	-20.21 	
0.00 	0.00 	0.00 	0.03 	0.05 	1.13 	0.35 	-0.26 	0.80 	20.21 	-0.88 	-3.22 	357.51 	357.86 	23.54 	101563.00 	1.00 	-19.80 	
0.00 	0.00 	0.00 	0.03 	0.05 	1.13 	0.14 	0.02 	0.68 	20.51 	-0.88 	-3.22 	357.55 	357.89 	23.54 	101565.00 	1.00 	-19.96 	
0.00 	0.00 	0.00 	0.03 	0.05 	1.13 	0.42 	0.11 	0.66 	20.80 	-1.17 	-3.22 	356.78 	357.13 	23.54 	101565.00 	1.00 	-19.96 	
0.00 	0.00 	0.00 	0.03 	0.04 	1.13 	0.25 	0.21 	0.67 	20.51 	-1.46 	-2.93 	355.91 	356.20 	23.55 	101565.00 	1.00 	-19.96 	
0.00 	0.00 	0.00 	0.03 	0.05 	1.13 	0.21 	0.09 	0.82 	20.51 	-1.17 	-3.52 	356.73 	357.11 	23.54 	101564.00 	1.00 	-19.88 	
0.00 	0.00 	0.00 	0.03 	0.04 	1.13 	0.43 	-0.06 	0.75 	19.92 	-0.88 	-3.52 	357.47 	357.85 	23.54 	101568.00 	1.00 	-20.21 	
0.00 	0.00 	0.00 	0.03 	0.05 	1.13 	0.29 	0.09 	0.68 	20.51 	-1.17 	-3.52 	356.73 	357.13 	23.54 	101565.00 	1.00 	-19.96 	
0.00 	0.00 	0.00 	0.03 	0.05 	1.13 	0.20 	-0.24 	0.51 	20.21 	-1.46 	-3.22 	355.86 	356.21 	23.55 	101567.00 	1.00 	-20.13 	
0.00 	0.00 	0.00 	0.03 	0.04 	1.13 	0.37 	-0.08 	0.41 	20.21 	-1.17 	-3.52 	356.68 	357.05 	23.54 	101568.00 	1.00 	-20.21 	
0.00 	0.00 	0.00 	0.03 	0.05 	1.13 	-0.03 	-0.01 	0.69 	20.51 	-0.88 	-3.52 	357.55 	357.93 	23.55 	101566.00 	1.00 	-20.04 	
0.00 	0.00 	0.00 	0.03 	0.05 	1.13 	0.39 	0.08 	0.56 	20.21 	-1.17 	-4.10 	356.68 	357.15 	23.54 	101563.00 	1.00 	-19.80 	
0.00 	0.00 	0.00 	0.03 	0.05 	1.13 	0.00 	-0.01 	0.57 	20.21 	-0.88 	-3.22 	357.51 	357.85 	23.54 	101562.00 	1.00 	-19.71 	
0.00 	0.00 	0.00 	0.03 	0.04 	1.13 	0.26 	0.20 	0.98 	20.51 	-1.76 	-3.22 	355.10 	355.44 	23.54 	101564.00 	1.00 	-19.88 	
0.00 	0.00 	0.00 	0.03 	0.05 	1.13 	0.17 	0.00 	0.81 	19.92 	-0.88 	-3.22 	357.47 	357.83 	23.54 	101568.00 	1.00 	-20.21 	
0.00 	0.00 	0.00 	0.03 	0.04 	1.14 	0.05 	0.11 	0.86 	20.21 	-2.05 	-3.52 	354.21 	354.57 	23.54 	101567.00 	1.00 	-20.13 	
0.00 	0.00 	0.00 	0.03 	0.05 	1.13 	0.24 	0.07 	0.94 	20.51 	-0.59 	-3.22 	358.36 	358.72 	23.54 	101564.00 	1.00 	-19.88 	
0.00 	0.00 	0.00 	0.03 	0.04 	1.13 	0.17 	-0.05 	0.82 	20.21 	-1.17 	-3.22 	356.68 	357.03 	23.54 	101565.00 	1.00 	-19.96 	
0.00 	0.00 	0.00 	0.03 	0.05 	1.14 	0.31 	0.07 	0.52 	20.21 	-1.17 	-3.22 	356.68 	357.04 	23.54 	101566.00 	1.00 	-20.04 	
0.00 	0.00 	0.00 	0.03 	0.05 	1.13 	0.31 	0.14 	0.73 	20.21 	-0.88 	-3.52 	357.51 	357.91 	23.54 	101565.00 	1.00 	-19.96 	
0.00 	0.00 	0.00 	0.04 	0.05 	1.13 	0.35 	-0.14 	0.87 	20.51 	-1.17 	-2.93 	356.73 	357.03 	23.55 	101563.00 	1.00 	-19.80 	
0.00 	0.00 	0.00 	0.03 	0.05 	1.13 	0.15 	0.04 	0.46 	20.21 	-0.88 	-3.81 	357.51 	357.94 	23.54 	101569.00 	1.00 	-20.29 	
0.00 	0.00 	0.00 	0.03 	0.05 	1.13 	-0.01 	0.16 	0.61 	19.92 	-1.17 	-3.52 	356.63 	357.03 	23.54 	101562.00 	1.00 	-19.71 	
0.00 	0.00 	0.00 	0.03 	0.05 	1.13 	0.30 	0.11 	0.46 	20.21 	-0.88 	-3.81 	357.51 	357.97 	23.55 	101566.00 	1.00 	-20.04 	
0.00 	0.00 	0.00 	0.03 	0.04 	1.13 	0.02 	0.09 	0.79 	20.51 	-1.76 	-3.52 	355.10 	355.46 	23.54 	101565.00 	1.00 	-19.96 	
0.00 	0.00 	0.00 	0.03 	0.04 	1.13 	0.29 	0.07 	0.64 	19.92 	-1.17 	-3.52 	356.63 	357.01 	23.54 	101567.00 	1.00 	-20.13 	
0.00 	0.00 	0.00 	0.03 	0.05 	1.13 	0.18 	0.02 	0.56 	19.63 	-0.88 	-3.22 	357.44 	357.82 	23.54 	101566.00 	1.00 	-20.04 	
0.00 	0.00 	0.00 	0.04 	0.04 	1.13 	0.31 	0.05 	0.42 	20.51 	-1.17 	-3.52 	356.73 	357.09 	23.55 	101566.00 	1.00 	-20.04 	
0.00 	0.00 	0.00 	0.03 	0.05 	1.13 	0.22 	0.19 	0.86 	20.21 	-1.46 	-2.93 	355.86 	356.19 	23.55 	101567.00 	1.00 	-20.13 	
0.00 	0.00 	0.00 	0.04 	0.05 	1.13 	0.29 	0.31 	0.88 	20.80 	-1.17 	-2.93 	356.78 	357.08 	23.55 	101567.00 	1.00 	-20.13 	
0.00 	0.00 	0.00 	0.03 	0.04 	1.13 	0.49 	-0.02 	0.70 	21.09 	-0.88 	-3.22 	357.61 	357.93 	23.55 	101569.00 	1.00 	-20.29 	
0.00 	0.00 	0.00 	0.03 	0.04 	1.13 	0.02 	-0.24 	0.70 	20.51 	-0.88 	-3.81 	357.55 	357.95 	23.55 	101568.00 	1.00 	-20.21 	
0.00 	0.00 	0.00 	0.03 	0.05 	1.13 	0.21 	0.08 	0.83 	19.92 	-1.46 	-3.52 	355.79 	356.21 	23.55 	101567.00 	1.00 	-20.13 	
0.00 	0.00 	0.00 	0.03 	0.05 	1.14 	0.27 	-0.06 	0.83 	20.21 	-1.17 	-3.22 	356.68 	357.03 	23.54 	101566.00 	1.00 	-20.04 	
0.00 	0.00 	0.00 	0.04 	0.05 	1.13 	0.26 	0.05 	0.76 	19.92 	-1.46 	-3.22 	355.79 	356.15 	23.54 	101565.00 	1.00 	-19.96 	
0.00 	0.00 	0.00 	0.03 	0.05 	1.13 	0.08 	-0.11 	0.49 	20.51 	-1.17 	-3.22 	356.73 	357.08 	23.54 	101568.00 	1.00 	-20.21 	
0.00 	0.00 	0.00 	0.03 	0.04 	1.12 	0.23 	-0.01 	0.42 	20.21 	-0.88 	-2.93 	357.51 	357.80 	23.54 	101567.00 	1.00 	-20.13 	
0.00 	0.00 	0.00 	0.03 	0.04 	1.13 	0.16 	-0.07 	0.81 	20.51 	-0.88 	-3.81 	357.55 	357.96 	23.55 	101564.00 	1.00 	-19.88 	
0.00 	0.00 	0.00 	0.03 	0.05 	1.13 	0.42 	0.11 	0.76 	20.21 	-1.17 	-3.22 	356.68 	357.03 	23.55 	101564.00 	1.00 	-19.88 	
0.00 	0.00 	0.00 	0.03 	0.04 	1.14 	0.12 	0.04 	0.63 	20.21 	-0.88 	-3.52 	357.51 	357.88 	23.54 	101567.00 	1.00 	-20.13 	
0.00 	0.00 	0.00 	0.03 	0.05 	1.13 	0.17 	-0.07 	0.58 	20.51 	-0.88 	-3.22 	357.55 	357.89 	23.54 	101565.00 	1.00 	-19.96 	
0.00 	0.00 	0.00 	0.03 	0.05 	1.13 	0.21 	0.19 	0.56 	20.51 	-1.46 	-3.22 	355.91 	356.27 	23.54 	101566.00 	1.00 	-20.04 	
0.00 	0.00 	0.00 	0.03 	0.04 	1.13 	0.14 	0.17 	0.79 	20.51 	-1.76 	-3.22 	355.10 	355.44 	23.55 	101565.00 	1.00 	-19.96 	
0.00 	0.00 	0.00 	0.03 	0.05 	1.14 	0.27 	-0.09 	0.51 	19.63 	-1.17 	-3.22 	356.58 	356.95 	23.54 	101561.00 	1.00 	-19.63 	
0.00 	0.00 	0.00 	0.03 	0.05 	1.12 	0.40 	0.25 	0.65 	20.21 	-1.17 	-3.52 	356.68 	357.08 	23.54 	101563.00 	1.00 	-19.80 	
0.00 	0.00 	0.00 	0.03 	0.05 	1.14 	0.22 	-0.01 	0.63 	20.21 	-1.17 	-3.52 	356.68 	357.07 	23.55 	101561.00 	1.00 	-19.63 	
0.00 	0.00 	0.00 	0.03 	0.04 	1.13 	0.29 	-0.24 	0.74 	20.80 	-1.17 	-3.81 	356.78 	357.18 	23.55 	101564.00 	1.00 	-19.88 	
0.00 	0.00 	0.00 	0.03 	0.05 	1.13 	0.18 	-0.04 	0.83 	20.21 	-1.17 	-3.81 	356.68 	357.10 	23.55 	101564.00 	1.00 	-19.88 	
0.00 	0.00 	0.00 	0.03 	0.05 	1.13 	0.34 	-0.17 	0.56 	20.21 	-1.17 	-3.52 	356.68 	357.08 	23.55 	101563.00 	1.00 	-19.80 	
0.00 	0.00 	0.00 	0.03 	0.05 	1.13 	0.21 	-0.08 	0.85 	20.21 	-0.88 	-4.10 	357.51 	357.97 	23.56 	101567.00 	1.00 	-20.13 	
0.00 	0.00 	0.00 	0.03 	0.04 	1.13 	0.11 	0.12 	0.82 	19.92 	-1.17 	-3.81 	356.63 	357.06 	23.55 	101562.00 	1.00 	-19.71 	
0.00 	0.00 	0.00 	0.03 	0.05 	1.13 	0.08 	-0.13 	0.71 	19.92 	-1.46 	-3.52 	355.79 	356.19 	23.54 	101562.00 	1.00 	-19.71 	
0.00 	0.00 	0.00 	0.04 	0.05 	1.13 	0.30 	0.20 	0.78 	21.39 	-1.46 	-3.81 	356.08 	356.49 	23.54 	101563.00 	1.00 	-19.80 	
0.00 	0.00 	0.00 	0.03 	0.04 	1.13 	0.34 	0.14 	0.82 	20.51 	-0.88 	-3.81 	357.55 	357.93 	23.54 	101561.00 	1.00 	-19.63 	
0.00 	0.00 	0.00 	0.03 	0.05 	1.13 	0.27 	0.10 	0.58 	20.21 	-0.59 	-3.22 	358.34 	358.69 	23.54 	101560.00 	1.00 	-19.54 	
0.00 	0.00 	0.00 	0.03 	0.05 	1.13 	0.18 	0.05 	0.67 	21.09 	-1.46 	-3.81 	356.03 	356.45 	23.55 	101562.00 	1.00 	-19.71 	
0.00 	0.00 	0.00 	0.03 	0.05 	1.13 	0.09 	-0.27 	0.63 	19.92 	-1.17 	-3.81 	356.63 	357.07 	23.55 	101561.00 	1.00 	-19.63 	
0.00 	0.00 	0.00 	0.03 	0.04 	1.13 	0.28 	0.07 	0.82 	20.51 	-0.88 	-3.81 	357.55 	357.94 	23.54 	101558.00 	1.00 	-19.38 	
0.00 	0.00 	0.00 	0.03 	0.04 	1.13 	0.32 	0.01 	0.83 	20.21 	-0.88 	-3.22 	357.51 	357.84 	23.55 	101560.00 	1.00 	-19.54 	
0.00 	0.00 	0.00 	0.03 	0.04 	1.13 	0.02 	0.08 	0.86 	20.80 	-1.46 	-4.10 	355.97 	356.42 	23.55 	101561.00 	1.00 	-19.63 	
0.00 	0.00 	0.00 	0.04 	0.04 	1.12 	0.27 	-0.09 	0.56 	20.21 	-1.17 	-3.22 	356.68 	357.02 	23.55 	101564.00 	1.00 	-19.88 	
0.00 	0.00 	0.00 	0.03 	0.05 	1.13 	0.05 	-0.05 	0.53 	20.21 	-1.17 	-2.93 	356.68 	357.00 	23.55 	101562.00 	1.00 	-19.71 	
0.00 	0.00 	0.00 	0.03 	0.05 	1.13 	0.31 	0.25 	0.81 	20.51 	-1.17 	-3.22 	356.73 	357.08 	23.55 	101563.00 	1.00 	-19.80 	
0.00 	0.00 	0.00 	0.03 	0.04 	1.13 	0.23 	-0.04 	0.83 	19.92 	-1.17 	-3.52 	356.63 	357.02 	23.55 	101561.00 	1.00 	-19.63 	
0.00 	0.00 	0.00 	0.04 	0.04 	1.13 	0.39 	0.05 	0.62 	20.80 	-0.29 	-3.81 	359.19 	359.55 	23.54 	101563.00 	1.00 	-19.80 	
0.00 	0.00 	0.00 	0.03 	0.05 	1.12 	0.37 	0.13 	0.60 	20.21 	-1.46 	-3.52 	355.86 	356.25 	23.54 	101563.00 	1.00 	-19.80 	
0.00 	0.00 	0.00 	0.03 	0.04 	1.14 	0.43 	-0.18 	0.48 	20.21 	-1.46 	-3.52 	355.86 	356.21 	23.54 	101562.00 	1.00 	-19.71 	
0.00 	0.00 	0.00 	0.04 	0.05 	1.13 	0.25 	0.31 	0.59 	19.92 	-1.46 	-3.52 	355.79 	356.20 	23.54 	101562.00 	1.00 	-19.71 	
0.00 	0.00 	0.00 	0.03 	0.05 	1.14 	0.50 	0.01 	0.79 	20.80 	-2.05 	-3.22 	354.37 	354.73 	23.55 	101563.00 	1.00 	-19.80 	
0.00 	0.00 	0.00 	0.03 	0.04 	1.13 	0.12 	0.19 	0.74 	20.21 	-1.17 	-3.52 	356.68 	357.06 	23.55 	101566.00 	1.00 	-20.04 	
0.00 	0.00 	0.00 	0.03 	0.05 	1.13 	0.31 	0.07 	0.77 	20.51 	-1.76 	-3.52 	355.10 	355.49 	23.55 	101564.00 	1.00 	-19.88 	
0.00 	0.00 	0.00 	0.03 	0.05 	1.13 	0.21 	-0.10 	0.65 	20.51 	-0.88 	-3.81 	357.55 	357.96 	23.55 	101561.00 	1.00 	-19.63 	
0.00 	0.00 	0.00 	0.03 	0.05 	1.13 	0.59 	0.30 	0.53 	20.80 	-1.46 	-3.22 	355.97 	356.33 	23.55 	101561.00 	1.00 	-19.63 	
0.00 	0.00 	0.00 	0.03 	0.05 	1.13 	0.30 	0.03 	0.43 	20.51 	-0.88 	-3.52 	357.55 	357.93 	23.55 	101567.00 	1.00 	-20.13 	
0.00 	0.00 	0.00 	0.03 	0.05 	1.13 	0.05 	-0.09 	0.40 	21.09 	-1.17 	-2.93 	356.82 	357.11 	23.54 	101565.00 	1.00 	-19.96 	
0.00 	0.00 	0.00 	0.03 	0.05 	1.13 	0.15 	0.32 	0.53 	19.92 	-1.46 	-3.81 	355.79 	356.26 	23.55 	101566.00 	1.00 	-20.04 	
0.00 	0.00 	0.00 	0.03 	0.05 	1.13 	0.07 	0.31 	0.64 	20.51 	-1.17 	-3.81 	356.73 	357.17 	23.55 	101566.00 	1.00 	-20.04 	
0.00 	0.00 	0.00 	0.03 	0.04 	1.13 	0.61 	-0.07 	0.75 	20.21 	-0.88 	-3.22 	357.51 	357.85 	23.54 	101562.00 	1.00 	-19.71 	
0.00 	0.00 	0.00 	0.03 	0.04 	1.13 	0.27 	0.08 	0.79 	20.51 	-0.88 	-2.93 	357.55 	357.83 	23.54 	101561.00 	1.00 	-19.63 	
0.00 	0.00 	0.00 	0.03 	0.04 	1.13 	0.18 	-0.17 	0.54 	20.21 	-1.17 	-3.52 	356.68 	357.04 	23.55 	101563.00 	1.00 	-19.80 	
0.00 	0.00 	0.00 	0.03 	0.05 	1.13 	0.24 	-0.13 	0.69 	20.21 	-1.46 	-3.22 	355.86 	356.21 	23.55 	101563.00 	1.00 	-19.80 	
0.00 	0.00 	0.00 	0.03 	0.04 	1.13 	0.37 	-0.01 	0.81 	20.80 	-1.17 	-3.52 	356.78 	357.13 	23.55 	101563.00 	1.00 	-19.80 	
0.00 	0.00 	0.00 	0.03 	0.04 	1.13 	0.41 	0.17 	0.82 	20.21 	-2.05 	-3.81 	354.21 	354.64 	23.54 	101564.00 	1.00 	-19.88 	
0.00 	0.00 	0.00 	0.03 	0.04 	1.13 	0.00 	-0.01 	0.40 	19.92 	-1.46 	-2.93 	355.79 	356.09 	23.54 	101564.00 	1.00 	-19.88 	
0.00 	0.00 	0.00 	0.03 	0.05 	1.12 	0.28 	0.24 	0.49 	20.80 	-1.17 	-3.22 	356.78 	357.13 	23.55 	101566.00 	1.00 	-20.04 	
0.00 	0.00 	0.00 	0.04 	0.04 	1.13 	0.48 	-0.14 	0.43 	20.51 	-1.46 	-3.81 	355.91 	356.30 	23.54 	101561.00 	1.00 	-19.63 	
0.00 	0.00 	0.00 	0.04 	0.04 	1.13 	0.22 	0.02 	0.82 	20.21 	-1.46 	-3.52 	355.86 	356.23 	23.55 	101564.00 	1.00 	-19.88 	
0.00 	0.00 	0.00 	0.04 	0.04 	1.14 	0.14 	-0.04 	0.73 	19.92 	-0.29 	-3.52 	359.16 	359.52 	23.54 	101566.00 	1.00 	-20.04 	
0.00 	0.00 	0.00 	0.03 	0.04 	1.13 	0.43 	0.29 	0.47 	19.63 	-1.17 	-3.22 	356.58 	356.93 	23.56 	101568.00 	1.00 	-20.21 	
0.00 	0.00 	0.00 	0.03 	0.05 	1.13 	0.14 	-0.28 	0.44 	20.51 	-1.46 	-3.81 	355.91 	356.34 	23.55 	101567.00 	1.00 	-20.13 	
0.00 	0.00 	0.00 	0.03 	0.04 	1.14 	0.10 	0.10 	0.68 	20.51 	-1.46 	-3.52 	355.91 	356.29 	23.55 	101568.00 	1.00 	-20.21 	
0.00 	0.00 	0.00 	0.03 	0.05 	1.13 	-0.02 	0.02 	0.37 	19.92 	-0.59 	-3.22 	358.32 	358.71 	23.55 	101566.00 	1.00 	-20.04 	
0.00 	0.00 	0.00 	0.03 	0.05 	1.14 	0.38 	-0.18 	0.61 	20.80 	-1.17 	-3.22 	356.78 	357.11 	23.56 	101568.00 	1.00 	-20.21 	
0.00 	0.00 	0.00 	0.03 	0.05 	1.13 	0.37 	0.13 	0.56 	20.80 	-0.59 	-3.22 	358.39 	358.72 	23.55 	101564.00 	1.00 	-19.88 	
0.00 	0.00 	0.00 	0.04 	0.04 	1.13 	0.23 	0.17 	0.68 	20.21 	-1.17 	-3.22 	356.68 	357.00 	23.55 	101567.00 	1.00 	-20.13 	
0.00 	0.00 	0.00 	0.03 	0.04 	1.13 	0.11 	0.06 	0.80 	20.51 	-1.17 	-3.81 	356.73 	357.13 	23.55 	101565.00 	1.00 	-19.96 	
0.00 	0.00 	0.00 	0.03 	0.04 	1.13 	0.16 	-0.08 	0.84 	20.51 	-0.88 	-2.93 	357.55 	357.81 	23.55 	101566.00 	1.00 	-20.04 	
0.00 	0.00 	0.00 	0.03 	0.05 	1.13 	0.07 	-0.12 	0.42 	20.51 	-1.46 	-3.52 	355.91 	356.32 	23.56 	101567.00 	1.00 	-20.13 	
0.00 	0.00 	0.00 	0.03 	0.04 	1.13 	0.11 	-0.14 	0.34 	20.51 	-1.17 	-3.81 	356.73 	357.14 	23.55 	101563.00 	1.00 	-19.80 	
0.00 	0.00 	0.00 	0.04 	0.05 	1.13 	0.18 	0.03 	0.73 	20.21 	-1.17 	-3.52 	356.68 	357.09 	23.55 	101568.00 	1.00 	-20.21 	
0.00 	0.00 	0.00 	0.04 	0.05 	1.13 	0.23 	0.14 	0.66 	20.51 	-1.17 	-2.93 	356.73 	357.03 	23.55 	101568.00 	1.00 	-20.21 	
0.00 	0.00 	0.00 	0.03 	0.05 	1.13 	0.31 	0.03 	0.37 	20.51 	-0.88 	-3.22 	357.55 	357.89 	23.55 	101567.00 	1.00 	-20.13 	
0.00 	0.00 	0.00 	0.03 	0.05 	1.13 	0.11 	-0.07 	0.46 	20.51 	-0.59 	-3.81 	358.36 	358.78 	23.55 	101564.00 	1.00 	-19.88 	
0.00 	0.00 	0.00 	0.03 	0.05 	1.13 	0.10 	-0.01 	0.63 	20.21 	-1.17 	-3.52 	356.68 	357.09 	23.54 	101568.00 	1.00 	-20.21 	
0.00 	0.00 	0.00 	0.03 	0.04 	1.13 	0.25 	0.10 	0.82 	20.21 	-1.46 	-4.10 	355.86 	356.31 	23.54 	101566.00 	1.00 	-20.04 	
0.00 	0.00 	0.00 	0.03 	0.05 	1.13 	0.44 	-0.06 	0.66 	19.92 	-1.17 	-2.93 	356.63 	356.96 	23.55 	101565.00 	1.00 	-19.96 	
0.00 	0.00 	0.00 	0.03 	0.05 	1.13 	0.11 	-0.05 	0.31 	21.09 	-1.17 	-3.22 	356.82 	357.18 	23.55 	101566.00 	1.00 	-20.04 	
0.00 	0.00 	0.00 	0.03 	0.05 	1.13 	0.15 	0.01 	0.42 	20.80 	-0.88 	-3.81 	357.58 	357.98 	23.54 	101567.00 	1.00 	-20.13 	
0.00 	0.00 	0.00 	0.03 	0.05 	1.13 	0.21 	-0.02 	0.91 	20.51 	-0.88 	-2.64 	357.55 	357.81 	23.54 	101564.00 	1.00 	-19.88 	
0.00 	0.00 	0.00 	0.04 	0.05 	1.13 	0.20 	-0.12 	0.53 	20.21 	-1.17 	-3.52 	356.68 	357.08 	23.55 	101564.00 	1.00 	-19.88 	
0.00 	0.00 	0.00 	0.04 	0.05 	1.13 	0.19 	0.15 	0.58 	20.21 	-1.17 	-3.22 	356.68 	357.05 	23.55 	101566.00 	1.00 	-20.04 	
0.00 	0.00 	0.00 	0.03 	0.05 	1.13 	0.25 	0.00 	0.92 	19.92 	-1.46 	-3.81 	355.79 	356.25 	23.54 	101564.00 	1.00 	-19.88 	
0.00 	0.00 	0.00 	0.04 	0.05 	1.13 	0.11 	-0.14 	0.85 	20.21 	-1.17 	-3.52 	356.68 	357.08 	23.55 	101567.00 	1.00 	-20.13 	
0.00 	0.00 	0.00 	0.03 	0.05 	1.13 	0.12 	0.16 	0.89 	20.21 	-0.88 	-3.52 	357.51 	357.89 	23.55 	101564.00 	1.00 	-19.88 	
0.00 	0.00 	0.00 	0.03 	0.04 	1.14 	0.23 	0.01 	0.60 	19.63 	-1.46 	-3.81 	355.73 	356.17 	23.55 	101566.00 	1.00 	-20.04 	
0.00 	0.00 	0.00 	0.03 	0.05 	1.13 	0.34 	0.03 	0.66 	20.21 	-0.88 	-3.52 	357.51 	357.93 	23.54 	101567.00 	1.00 	-20.13 	
0.00 	0.00 	0.00 	0.03 	0.05 	1.14 	0.29 	0.05 	0.47 	20.80 	-1.46 	-3.52 	355.97 	356.35 	23.54 	101562.00 	1.00 	-19.71 	
0.00 	0.00 	0.00 	0.03 	0.05 	1.13 	0.41 	0.24 	0.60 	19.92 	-1.46 	-2.93 	355.79 	356.14 	23.55 	101565.00 	1.00 	-19.96 	
0.00 	0.00 	0.00 	0.03 	0.05 	1.13 	0.33 	0.11 	0.72 	20.51 	-1.17 	-3.52 	356.73 	357.15 	23.54 	101563.00 	1.00 	-19.80 	
0.00 	0.00 	0.00 	0.03 	0.05 	1.13 	0.02 	0.15 	0.69 	20.51 	-0.88 	-3.81 	357.55 	357.98 	23.55 	101566.00 	1.00 	-20.04 	
0.00 	0.00 	0.00 	0.03 	0.05 	1.12 	0.08 	-0.05 	0.63 	20.21 	-0.88 	-2.93 	357.51 	357.83 	23.55 	101564.00 	1.00 	-19.88 	
0.00 	0.00 	0.00 	0.03 	0.04 	1.13 	0.23 	-0.12 	0.73 	19.63 	-0.88 	-2.93 	357.44 	357.74 	23.55 	101567.00 	1.00 	-20.13 	
0.00 	0.00 	0.00 	0.03 	0.05 	1.14 	0.11 	0.14 	0.84 	19.92 	-1.17 	-3.81 	356.63 	357.12 	23.55 	101567.00 	1.00 	-20.13 	
0.00 	0.00 	0.00 	0.03 	0.05 	1.13 	0.08 	0.41 	0.84 	20.21 	-1.46 	-2.93 	355.86 	356.17 	23.54 	101562.00 	1.00 	-19.71 	
0.00 	0.00 	0.00 	0.03 	0.04 	1.13 	0.27 	-0.20 	0.78 	20.51 	-1.46 	-3.52 	355.91 	356.30 	23.55 	101569.00 	1.00 	-20.29 	
0.00 	0.00 	0.00 	0.03 	0.05 	1.13 	0.07 	0.31 	0.63 	19.63 	-1.46 	-3.22 	355.73 	356.13 	23.54 	101565.00 	1.00 	-19.96 	
0.00 	0.00 	0.00 	0.03 	0.05 	1.13 	0.16 	-0.04 	0.53 	20.21 	-0.88 	-3.22 	357.51 	357.86 	23.55 	101566.00 	1.00 	-20.04 	
0.00 	0.00 	0.00 	0.03 	0.05 	1.14 	0.21 	0.21 	0.79 	20.51 	-1.46 	-3.81 	355.91 	356.34 	23.54 	101565.00 	1.00 	-19.96 	
0.00 	0.00 	0.00 	0.03 	0.05 	1.13 	0.27 	0.10 	0.84 	20.51 	-1.17 	-2.93 	356.73 	357.03 	23.55 	101567.00 	1.00 	-20.13 	
0.00 	0.00 	0.00 	0.03 	0.05 	1.13 	0.21 	-0.14 	0.89 	20.21 	-0.88 	-2.64 	357.51 	357.78 	23.55 	101568.00 	1.00 	-20.21 	
0.00 	0.00 	0.00 	0.03 	0.05 	1.14 	0.34 	-0.09 	0.45 	20.21 	-1.46 	-3.52 	355.86 	356.29 	23.55 	101567.00 	1.00 	-20.13 	
0.00 	0.00 	0.00 	0.03 	0.04 	1.13 	0.31 	0.14 	0.79 	20.80 	-0.59 	-3.22 	358.39 	358.71 	23.55 	101569.00 	1.00 	-20.29 	
0.00 	0.00 	0.00 	0.03 	0.05 	1.13 	0.11 	0.34 	0.30 	20.80 	-1.17 	-3.52 	356.78 	357.16 	23.55 	101566.00 	1.00 	-20.04 	
0.00 	0.00 	0.00 	0.03 	0.04 	1.13 	0.42 	0.01 	0.43 	20.21 	-1.17 	-3.22 	356.68 	357.02 	23.54 	101567.00 	1.00 	-20.13 	
0.00 	0.00 	0.00 	0.03 	0.05 	1.13 	0.19 	0.05 	0.85 	20.21 	-1.17 	-3.81 	356.68 	357.16 	23.54 	101568.00 	1.00 	-20.21 	
0.00 	0.00 	0.00 	0.03 	0.05 	1.13 	0.18 	-0.10 	0.79 	19.92 	-1.76 	-3.52 	354.96 	355.38 	23.55 	101571.00 	1.00 	-20.46 	
0.00 	0.00 	0.00 	0.03 	0.04 	1.13 	0.16 	0.05 	0.90 	20.51 	-1.17 	-3.81 	356.73 	357.13 	23.55 	101569.00 	1.00 	-20.29 	
0.00 	0.00 	0.00 	0.03 	0.05 	1.13 	0.09 	0.18 	0.66 	20.21 	-1.46 	-3.22 	355.86 	356.21 	23.55 	101567.00 	1.00 	-20.13 	
0.00 	0.00 	0.00 	0.02 	0.03 	1.13 	2.24 	0.12 	0.76 	20.21 	-0.88 	-3.52 	357.51 	357.77 	23.55 	99274.00 	0.98 	172.15 	
0.00 	0.00 	0.00 	0.03 	0.07 	1.13 	-0.20 	-0.01 	0.66 	20.80 	-1.46 	-3.52 	355.97 	356.55 	23.53 	95245.00 	0.94 	518.87 	
0.00 	0.00 	0.00 	0.06 	0.06 	1.13 	0.15 	0.22 	0.53 	20.51 	-0.88 	-2.93 	357.55 	357.88 	23.50 	91241.00 	0.90 	875.42 	
0.00 	0.00 	0.00 	0.05 	0.06 	1.14 	-0.02 	-0.21 	0.69 	20.21 	-0.59 	-3.52 	358.34 	358.78 	23.48 	87962.00 	0.87 	1176.97 	
0.00 	0.00 	0.00 	0.05 	0.03 	1.15 	0.09 	0.13 	0.79 	20.21 	-0.88 	-3.22 	357.51 	357.70 	23.45 	84818.00 	0.84 	1474.78 	
0.00 	0.00 	0.00 	0.04 	0.04 	1.14 	0.38 	-0.15 	0.74 	20.51 	-1.46 	-2.93 	355.91 	356.16 	23.41 	81801.00 	0.81 	1769.09 	
0.00 	0.00 	0.00 	0.03 	0.02 	1.15 	1.01 	-0.24 	0.96 	20.51 	-1.76 	-3.22 	355.10 	355.29 	23.36 	78659.00 	0.78 	2085.08 	
0.00 	0.00 	0.00 	0.03 	0.02 	1.14 	-0.08 	-0.04 	0.41 	20.80 	-0.59 	-3.22 	358.39 	358.56 	23.31 	75881.00 	0.75 	2373.10 	
0.00 	0.00 	0.00 	0.05 	0.05 	1.13 	0.56 	0.12 	0.49 	20.51 	-0.88 	-2.93 	357.55 	357.83 	23.27 	73232.00 	0.72 	2655.81 	
0.00 	0.00 	0.00 	0.01 	0.06 	1.12 	-0.29 	0.10 	0.69 	20.21 	-1.17 	-3.81 	356.68 	357.33 	23.25 	70764.00 	0.70 	2926.76 	
0.00 	0.00 	0.00 	0.05 	0.05 	1.12 	0.95 	-0.20 	0.33 	19.63 	-0.88 	-3.22 	357.44 	357.75 	23.17 	68122.00 	0.67 	3225.42 	
0.00 	0.00 	0.00 	0.02 	0.05 	1.12 	0.88 	0.31 	0.51 	20.51 	-1.17 	-2.93 	356.73 	357.06 	23.12 	65793.00 	0.65 	3496.58 	
0.00 	0.00 	0.00 	0.03 	0.06 	1.13 	0.34 	0.24 	0.92 	20.80 	-1.46 	-2.93 	355.97 	356.36 	23.08 	63563.00 	0.63 	3763.61 	
0.00 	0.00 	0.00 	0.04 	0.07 	1.12 	-0.19 	-0.16 	1.05 	20.21 	-0.88 	-3.22 	357.51 	357.99 	23.06 	61430.00 	0.61 	4026.20 	
0.00 	0.00 	0.00 	0.06 	0.04 	1.14 	1.53 	0.08 	0.58 	20.80 	-1.17 	-3.52 	356.78 	357.04 	23.00 	59281.00 	0.59 	4298.35 	
0.00 	0.00 	0.00 	0.03 	0.03 	1.13 	0.73 	0.11 	0.72 	20.51 	-1.17 	-3.52 	356.73 	357.02 	22.96 	57331.00 	0.57 	4552.30 	
0.00 	0.00 	0.00 	0.05 	0.03 	1.13 	0.12 	0.04 	0.77 	19.92 	-0.88 	-3.22 	357.47 	357.70 	22.93 	55457.00 	0.55 	4803.03 	
0.00 	0.00 	0.00 	0.05 	0.03 	1.13 	0.52 	0.19 	0.69 	20.21 	-1.17 	-3.22 	356.68 	356.88 	22.94 	53662.00 	0.53 	5049.71 	
0.00 	0.00 	0.00 	0.02 	0.04 	1.13 	0.34 	0.30 	0.70 	20.21 	-1.46 	-3.22 	355.86 	356.16 	22.91 	51796.00 	0.51 	5313.33 	
0.00 	0.00 	0.00 	0.01 	0.03 	1.13 	0.42 	-0.05 	0.57 	20.80 	-0.88 	-3.22 	357.58 	357.84 	22.87 	50136.00 	0.49 	5554.40 	
0.00 	0.00 	0.00 	0.03 	0.04 	1.11 	0.95 	0.04 	0.78 	20.80 	-0.59 	-3.22 	358.39 	358.66 	22.77 	48531.00 	0.48 	5793.70 	
0.00 	0.00 	0.00 	0.05 	0.05 	1.14 	0.87 	0.11 	0.32 	20.51 	-0.88 	-2.93 	357.55 	357.84 	22.71 	46968.00 	0.46 	6032.99 	
0.00 	0.00 	0.00 	0.05 	0.05 	1.14 	1.40 	0.11 	0.46 	20.51 	-1.17 	-3.22 	356.73 	357.03 	22.70 	45372.00 	0.45 	6284.07 	
0.00 	0.00 	0.00 	0.05 	0.05 	1.12 	1.23 	0.28 	0.58 	20.21 	-1.46 	-3.52 	355.86 	356.25 	22.66 	43873.00 	0.43 	6526.49 	
0.00 	0.00 	0.00 	0.04 	0.06 	1.14 	1.46 	-0.06 	0.62 	21.39 	-1.76 	-2.93 	355.30 	355.65 	22.66 	42470.00 	0.42 	6759.54 	
0.00 	0.00 	0.00 	0.01 	0.06 	1.12 	0.39 	-0.08 	0.45 	20.51 	-0.88 	-3.22 	357.55 	358.10 	22.65 	41103.00 	0.41 	6992.69 	
0.00 	0.00 	0.00 	0.03 	0.04 	1.13 	1.33 	-0.14 	0.76 	20.51 	-0.88 	-2.93 	357.55 	357.80 	22.66 	39679.00 	0.39 	7242.33 	
0.00 	0.00 	0.00 	0.02 	0.04 	1.13 	-0.13 	0.18 	0.93 	20.80 	-0.88 	-3.22 	357.58 	357.93 	22.63 	38407.00 	0.38 	7471.54 	
0.00 	0.00 	0.00 	0.05 	0.06 	1.14 	0.38 	-0.05 	0.94 	20.51 	-0.59 	-3.22 	358.36 	358.72 	22.64 	37183.00 	0.37 	7697.98 	
0.00 	0.00 	0.00 	0.01 	0.05 	1.13 	0.63 	-0.24 	0.67 	20.51 	-0.88 	-3.52 	357.55 	358.05 	22.61 	35989.00 	0.36 	7924.76 	
0.00 	0.00 	0.00 	0.04 	0.04 	1.11 	0.73 	0.37 	0.56 	20.51 	-1.17 	-3.52 	356.73 	357.03 	22.61 	34747.00 	0.34 	8167.21 	
0.00 	0.00 	0.00 	0.02 	0.04 	1.14 	0.87 	0.08 	0.66 	21.09 	-0.88 	-3.22 	357.61 	357.96 	22.64 	33639.00 	0.33 	8389.51 	
0.00 	0.00 	0.00 	0.04 	0.06 	1.12 	-0.16 	-0.08 	0.31 	20.80 	-1.17 	-2.93 	356.78 	357.17 	22.61 	32570.00 	0.32 	8609.67 	
0.00 	0.00 	0.00 	0.02 	0.05 	1.13 	-0.76 	-0.18 	0.92 	21.09 	-0.59 	-3.22 	358.41 	358.81 	22.63 	31529.00 	0.31 	8829.76 	
0.00 	0.00 	0.00 	0.04 	0.05 	1.13 	0.07 	-0.14 	0.53 	20.51 	-1.17 	-3.22 	356.73 	357.08 	22.65 	30524.00 	0.30 	9047.90 	
0.00 	0.00 	0.00 	0.02 	0.05 	1.14 	0.00 	0.08 	0.84 	20.21 	-0.88 	-2.93 	357.51 	357.89 	22.64 	29494.00 	0.29 	9277.58 	
0.00 	0.00 	0.00 	0.03 	0.05 	1.13 	-0.99 	-0.10 	0.60 	19.92 	-0.88 	-3.22 	357.47 	357.88 	22.67 	28559.00 	0.28 	9491.78 	
0.00 	0.00 	0.00 	0.05 	0.05 	1.12 	0.74 	0.18 	0.53 	19.92 	-1.17 	-2.64 	356.63 	356.88 	22.70 	27649.00 	0.27 	9705.77 	
0.00 	0.00 	0.00 	0.03 	0.03 	1.15 	0.95 	0.24 	0.85 	20.51 	-1.17 	-3.52 	356.73 	357.03 	22.69 	26779.00 	0.26 	9915.75 	
0.00 	0.00 	0.00 	0.04 	0.05 	1.12 	-0.69 	-0.26 	0.92 	19.92 	-0.88 	-2.64 	357.47 	357.78 	22.69 	25864.00 	0.26 	10142.64 	
0.00 	0.00 	0.00 	0.04 	0.05 	1.13 	1.21 	0.08 	0.53 	20.21 	-0.88 	-3.22 	357.51 	357.85 	22.69 	25039.00 	0.25 	10352.86 	
0.00 	0.00 	0.00 	0.03 	0.05 	1.14 	1.36 	-0.14 	0.68 	20.21 	-1.46 	-3.52 	355.86 	356.26 	22.74 	24245.00 	0.24 	10560.54 	
0.00 	0.00 	0.00 	0.03 	0.04 	1.13 	0.38 	-0.10 	0.89 	20.21 	-0.88 	-2.93 	357.51 	357.81 	22.73 	23477.00 	0.23 	10766.74 	
0.00 	0.00 	0.00 	0.04 	0.05 	1.13 	1.57 	-0.02 	0.63 	20.51 	-1.17 	-3.22 	356.73 	357.09 	22.76 	22704.00 	0.22 	10979.86 	
0.00 	0.00 	0.00 	0.02 	0.05 	1.14 	1.23 	0.21 	0.74 	20.51 	-1.17 	-3.22 	356.73 	357.13 	22.77 	21986.00 	0.22 	11183.15 	
0.00 	0.00 	0.00 	0.05 	0.04 	1.11 	-0.89 	-0.09 	0.63 	20.80 	-0.88 	-2.93 	357.58 	357.79 	22.79 	21294.00 	0.21 	11384.23 	
0.00 	0.00 	0.00 	0.04 	0.04 	1.12 	-0.40 	-0.09 	0.43 	20.21 	-0.88 	-2.93 	357.51 	357.77 	22.83 	20630.00 	0.20 	11582.21 	
0.00 	0.00 	0.00 	0.04 	0.06 	1.13 	0.85 	-0.03 	0.81 	21.39 	-0.59 	-2.93 	358.43 	358.76 	22.84 	19924.00 	0.20 	11798.46 	
0.00 	0.00 	0.00 	0.02 	0.04 	1.14 	-0.21 	-0.41 	0.76 	21.39 	-1.17 	-3.22 	356.86 	357.15 	22.84 	19295.00 	0.19 	11996.42 	
0.00 	0.00 	0.00 	0.05 	0.03 	1.13 	-0.78 	-0.25 	0.41 	21.09 	-1.17 	-3.52 	356.82 	357.05 	22.87 	18702.00 	0.18 	12187.89 	
0.00 	0.00 	0.00 	0.02 	0.03 	1.15 	0.72 	0.29 	0.82 	21.09 	-0.88 	-3.22 	357.61 	357.87 	22.88 	18112.00 	0.18 	12383.33 	
0.00 	0.00 	0.00 	0.01 	0.05 	1.12 	-0.34 	-0.12 	0.74 	20.80 	-0.59 	-3.52 	358.39 	358.80 	22.91 	17493.00 	0.17 	12594.01 	
0.00 	0.00 	0.00 	0.04 	0.04 	1.14 	1.14 	-0.22 	0.54 	20.80 	-1.17 	-3.52 	356.78 	357.11 	22.90 	16954.00 	0.17 	12782.42 	
0.00 	0.00 	0.00 	0.05 	0.05 	1.13 	2.04 	-0.31 	0.87 	20.21 	-1.46 	-3.52 	355.86 	356.23 	22.91 	16418.00 	0.16 	12974.67 	
0.00 	0.00 	0.00 	0.02 	0.05 	1.13 	1.17 	0.18 	0.84 	20.51 	-1.17 	-3.22 	356.73 	357.10 	22.92 	15901.00 	0.16 	13164.98 	
0.00 	0.00 	0.00 	0.03 	0.06 	1.14 	0.63 	0.06 	0.90 	20.21 	-1.17 	-3.52 	356.68 	357.17 	22.94 	15373.00 	0.15 	13364.58 	
0.00 	0.00 	0.00 	0.03 	0.06 	1.12 	0.12 	0.24 	0.67 	20.80 	-1.17 	-3.22 	356.78 	357.24 	22.95 	14904.00 	0.15 	13546.58 	
0.00 	0.00 	0.00 	0.05 	0.06 	1.13 	-0.61 	-0.26 	0.69 	20.51 	-0.88 	-3.22 	357.55 	357.97 	22.96 	14437.00 	0.14 	13732.48 	
0.00 	0.00 	0.00 	0.02 	0.05 	1.12 	-0.30 	0.25 	0.70 	20.21 	-1.17 	-3.22 	356.68 	357.08 	22.98 	13990.00 	0.14 	13915.04 	
0.00 	0.00 	0.00 	0.02 	0.04 	1.13 	0.11 	-0.11 	0.78 	20.80 	-1.17 	-3.22 	356.78 	357.08 	23.00 	13514.00 	0.13 	14114.70 	
0.00 	0.00 	0.00 	0.04 	0.04 	1.12 	0.01 	-0.14 	0.53 	20.51 	-0.59 	-3.22 	358.36 	358.62 	23.00 	13090.00 	0.13 	14297.42 	
0.00 	0.00 	0.00 	0.04 	0.04 	1.12 	0.18 	-0.20 	0.56 	20.80 	-1.17 	-3.52 	356.78 	357.06 	23.02 	12688.00 	0.13 	14475.12 	
0.00 	0.00 	0.00 	0.04 	0.05 	1.14 	0.70 	0.31 	0.51 	19.92 	-1.76 	-3.52 	354.96 	355.35 	23.03 	12282.00 	0.12 	14659.29 	
0.00 	0.00 	0.00 	0.02 	0.04 	1.14 	-0.11 	-0.05 	0.70 	20.80 	-1.46 	-2.93 	355.97 	356.28 	23.04 	11887.00 	0.12 	14843.26 	
0.00 	0.00 	0.00 	0.02 	0.04 	1.14 	1.36 	0.37 	0.85 	20.80 	-1.17 	-3.52 	356.78 	357.14 	23.05 	11523.00 	0.11 	15017.23 	
0.00 	0.00 	0.00 	0.04 	0.05 	1.14 	1.20 	-0.02 	0.60 	20.21 	-0.88 	-3.22 	357.51 	357.86 	23.05 	11165.00 	0.11 	15192.73 	
0.00 	0.00 	0.00 	0.06 	0.05 	1.14 	0.09 	-0.22 	0.72 	20.80 	-0.59 	-3.22 	358.39 	358.64 	23.07 	10826.00 	0.11 	15363.17 	
0.00 	0.00 	0.00 	0.05 	0.06 	1.14 	-0.78 	0.02 	0.83 	21.09 	-0.88 	-3.22 	357.61 	357.98 	23.08 	10467.00 	0.10 	15548.44 	
0.00 	0.00 	0.00 	0.04 	0.06 	1.15 	-0.89 	0.20 	0.77 	20.51 	-0.88 	-2.93 	357.55 	357.91 	23.09 	10149.00 	0.10 	15716.90 	
0.00 	0.00 	0.00 	0.02 	0.04 	1.14 	1.15 	-0.07 	0.69 	20.51 	-1.17 	-3.22 	356.73 	357.03 	23.08 	9835.00 	0.10 	15887.48 	
0.00 	0.00 	0.00 	0.01 	0.04 	1.15 	0.63 	0.05 	0.70 	21.09 	-1.17 	-3.22 	356.82 	357.15 	23.10 	9549.00 	0.09 	16046.74 	
0.00 	0.00 	0.00 	0.03 	0.04 	1.13 	0.21 	-0.04 	0.95 	20.51 	-1.17 	-3.81 	356.73 	357.11 	23.11 	9228.00 	0.09 	16230.16 	
0.00 	0.00 	0.00 	0.01 	0.03 	1.14 	1.21 	-0.11 	0.70 	19.92 	-0.88 	-3.22 	357.47 	357.74 	23.11 	8948.00 	0.09 	16394.41 	
0.00 	0.00 	0.00 	0.03 	0.05 	1.12 	0.81 	-0.11 	0.57 	20.51 	-0.88 	-3.22 	357.55 	357.92 	23.12 	8679.00 	0.09 	16556.18 	
0.00 	0.00 	0.00 	0.05 	0.03 	1.12 	0.52 	-0.05 	0.57 	21.09 	-0.88 	-3.22 	357.61 	357.83 	23.12 	8426.00 	0.08 	16712.08 	
0.00 	0.00 	0.00 	0.03 	0.04 	1.14 	0.92 	0.25 	0.94 	20.80 	-0.88 	-3.52 	357.58 	357.94 	23.13 	8159.00 	0.08 	16880.77 	
0.00 	0.00 	0.00 	0.04 	0.06 	1.13 	0.49 	0.06 	0.85 	20.21 	-0.88 	-3.52 	357.51 	357.97 	23.13 	7912.00 	0.08 	17040.85 	
0.00 	0.00 	0.00 	0.03 	0.05 	1.14 	0.34 	0.21 	0.70 	20.51 	-1.17 	-3.22 	356.73 	357.07 	23.13 	7677.00 	0.08 	17196.96 	
0.00 	0.00 	0.00 	0.03 	0.06 	1.14 	0.73 	0.01 	1.08 	20.51 	-1.17 	-3.52 	356.73 	357.21 	23.13 	7461.00 	0.07 	17343.90 	
0.00 	0.00 	0.00 	0.01 	0.03 	1.14 	0.89 	0.05 	0.89 	20.80 	-0.88 	-3.22 	357.58 	357.87 	23.15 	7220.00 	0.07 	17511.96 	
0.00 	0.00 	0.00 	0.02 	0.04 	1.12 	0.52 	0.14 	0.90 	21.09 	-0.88 	-3.52 	357.61 	357.99 	23.14 	7008.00 	0.07 	17663.61 	
0.00 	0.00 	0.00 	0.02 	0.05 	1.12 	1.16 	0.10 	0.70 	20.21 	-0.59 	-3.81 	358.34 	358.85 	23.16 	6809.00 	0.07 	17809.37 	
0.00 	0.00 	0.00 	0.05 	0.06 	1.10 	-0.56 	-0.24 	0.50 	20.51 	-0.29 	-3.52 	359.18 	359.63 	23.15 	6607.00 	0.07 	17960.89 	
0.00 	0.00 	0.00 	0.03 	0.04 	1.12 	0.17 	-0.40 	0.95 	21.09 	-0.88 	-3.22 	357.61 	357.93 	23.16 	6405.00 	0.06 	18116.23 	
0.00 	0.00 	0.00 	0.05 	0.06 	1.11 	0.53 	0.36 	0.58 	20.51 	-1.17 	-3.81 	356.73 	357.18 	23.16 	6222.00 	0.06 	18260.41 	
0.00 	0.00 	0.00 	0.03 	0.04 	1.13 	0.69 	-0.07 	0.37 	20.21 	-1.17 	-3.22 	356.68 	357.01 	23.16 	6046.00 	0.06 	18402.35 	
0.00 	0.00 	0.00 	0.02 	0.04 	1.13 	0.37 	-0.05 	0.79 	20.51 	-0.88 	-2.93 	357.55 	357.85 	23.17 	5880.00 	0.06 	18539.33 	
0.00 	0.00 	0.00 	0.01 	0.06 	1.14 	0.22 	-0.05 	0.74 	20.51 	-0.88 	-3.52 	357.55 	358.09 	23.17 	5697.00 	0.06 	18694.01 	
0.00 	0.00 	0.00 	0.04 	0.06 	1.13 	0.12 	0.08 	0.66 	20.80 	-0.59 	-2.93 	358.39 	358.72 	23.17 	5547.00 	0.05 	18823.83 	
0.00 	0.00 	0.00 	0.05 	0.05 	1.13 	1.01 	0.09 	0.82 	20.51 	-0.88 	-3.22 	357.55 	357.90 	23.18 	5390.00 	0.05 	18962.79 	
0.00 	0.00 	0.00 	0.02 	0.05 	1.15 	-0.10 	-0.15 	1.03 	20.21 	-0.88 	-2.93 	357.51 	357.87 	23.18 	5245.00 	0.05 	19094.07 	
0.00 	0.00 	0.00 	0.03 	0.05 	1.13 	0.30 	-0.05 	0.63 	20.80 	-0.88 	-3.81 	357.58 	358.05 	23.18 	5086.00 	0.05 	19241.45 	
0.00 	0.00 	0.00 	0.03 	0.07 	1.14 	-0.27 	0.07 	0.56 	20.51 	-0.88 	-3.22 	357.55 	358.02 	23.18 	4955.00 	0.05 	19365.71 	
0.00 	0.00 	0.00 	0.03 	0.06 	1.13 	0.67 	0.10 	0.82 	20.80 	-1.17 	-3.52 	356.78 	357.25 	23.19 	4825.00 	0.05 	19491.67 	
0.00 	0.00 	0.00 	0.04 	0.06 	1.12 	-0.66 	-0.11 	0.38 	19.92 	-0.29 	-3.22 	359.16 	359.55 	23.18 	4693.00 	0.05 	19622.42 	
0.00 	0.00 	0.00 	0.02 	0.04 	1.14 	0.57 	0.11 	0.80 	20.21 	-0.59 	-3.22 	358.34 	358.65 	23.19 	4542.00 	0.04 	19775.69 	
0.00 	0.00 	0.00 	0.04 	0.04 	1.13 	0.79 	0.02 	0.65 	20.51 	-1.17 	-2.93 	356.73 	356.97 	23.19 	4418.00 	0.04 	19904.67 	
0.00 	0.00 	0.00 	0.03 	0.04 	1.13 	0.92 	0.11 	0.63 	19.92 	-0.88 	-2.93 	357.47 	357.76 	23.19 	4308.00 	0.04 	20021.57 	
0.00 	0.00 	0.00 	0.06 	0.06 	1.14 	0.41 	0.21 	0.44 	20.51 	-1.17 	-3.22 	356.73 	357.07 	23.19 	4200.00 	0.04 	20138.71 	
0.00 	0.00 	0.00 	0.05 	0.04 	1.12 	-0.31 	-0.16 	0.61 	20.51 	-1.76 	-3.22 	355.10 	355.38 	23.19 	4083.00 	0.04 	20268.40 	
0.00 	0.00 	0.00 	0.04 	0.04 	1.13 	-0.14 	0.08 	0.66 	20.51 	-0.88 	-3.52 	357.55 	357.86 	23.19 	3977.00 	0.04 	20388.53 	
0.00 	0.00 	0.00 	0.03 	0.06 	1.13 	-0.50 	-0.14 	0.82 	20.80 	-0.88 	-3.52 	357.58 	358.05 	23.19 	3882.00 	0.04 	20498.41 	
0.00 	0.00 	0.00 	0.03 	0.06 	1.13 	-0.23 	-0.11 	0.37 	20.80 	-0.88 	-3.22 	357.58 	358.02 	23.20 	3784.00 	0.04 	20614.07 	
0.00 	0.00 	0.00 	0.03 	0.05 	1.13 	1.02 	0.20 	0.52 	20.51 	-0.59 	-3.52 	358.36 	358.78 	23.19 	3685.00 	0.04 	20733.40 	
0.00 	0.00 	0.00 	0.05 	0.05 	1.15 	0.34 	-0.13 	0.92 	20.51 	-0.88 	-3.52 	357.55 	357.88 	23.19 	3602.00 	0.04 	20835.46 	
0.00 	0.00 	0.00 	0.02 	0.04 	1.13 	-0.11 	0.08 	0.63 	20.51 	-1.46 	-4.10 	355.91 	356.39 	23.20 	3516.00 	0.03 	20943.24 	
0.00 	0.00 	0.00 	0.06 	0.05 	1.12 	0.29 	0.11 	0.61 	20.80 	-0.88 	-2.93 	357.58 	357.83 	23.20 	3428.00 	0.03 	21055.75 	
0.00 	0.00 	0.00 	0.00 	0.05 	1.13 	-0.89 	-0.16 	0.76 	19.92 	-1.17 	-3.22 	356.63 	357.13 	23.20 	3342.00 	0.03 	21167.99 	
0.00 	0.00 	0.00 	0.03 	0.05 	1.15 	1.09 	0.56 	0.72 	20.51 	-1.17 	-3.52 	356.73 	357.16 	23.20 	3266.00 	0.03 	21269.15 	
0.00 	0.00 	0.00 	0.05 	0.05 	1.12 	0.37 	0.23 	0.80 	20.80 	-0.59 	-3.81 	358.39 	358.75 	23.19 	3195.00 	0.03 	21365.39 	
0.00 	0.00 	0.00 	0.03 	0.05 	1.14 	-0.20 	0.13 	0.91 	20.80 	-0.29 	-3.22 	359.19 	359.51 	23.19 	3114.00 	0.03 	21477.32 	
0.00 	0.00 	0.00 	0.03 	0.04 	1.14 	0.53 	0.14 	0.61 	19.92 	-0.88 	-3.81 	357.47 	357.85 	23.19 	3049.00 	0.03 	21568.86 	
0.00 	0.00 	0.00 	0.04 	0.05 	1.12 	0.07 	-0.24 	0.64 	20.80 	-0.88 	-3.22 	357.58 	357.92 	23.19 	2979.00 	0.03 	21669.22 	
0.00 	0.00 	0.00 	0.00 	0.04 	1.12 	-0.03 	-0.08 	0.85 	21.09 	-1.76 	-3.81 	355.24 	355.69 	23.19 	2917.00 	0.03 	21759.72 	
0.00 	0.00 	0.00 	0.05 	0.05 	1.14 	0.42 	0.02 	0.55 	20.21 	-1.17 	-2.93 	356.68 	356.99 	23.19 	2857.00 	0.03 	21848.80 	
0.00 	0.00 	0.00 	0.03 	0.04 	1.13 	-0.37 	0.07 	0.94 	19.92 	-1.17 	-3.52 	356.63 	356.99 	23.19 	2790.00 	0.03 	21950.08 	
0.00 	0.00 	0.00 	0.03 	0.03 	1.14 	1.04 	-0.03 	0.54 	19.92 	-1.46 	-2.93 	355.79 	356.03 	23.19 	2725.00 	0.03 	22050.23 	
0.00 	0.00 	0.00 	0.03 	0.03 	1.14 	0.59 	0.09 	0.70 	20.51 	-1.17 	-3.22 	356.73 	356.99 	23.18 	2670.00 	0.03 	22136.50 	
0.00 	0.00 	0.00 	0.02 	0.05 	1.14 	0.41 	0.13 	0.95 	20.51 	-1.17 	-3.81 	356.73 	357.23 	23.19 	2618.00 	0.03 	22219.40 	
0.00 	0.00 	0.00 	0.05 	0.06 	1.14 	0.28 	-0.17 	0.50 	20.21 	-0.59 	-3.22 	358.34 	358.74 	23.18 	2566.00 	0.03 	22303.64 	
0.00 	0.00 	0.00 	0.02 	0.06 	1.14 	0.11 	-0.05 	0.49 	20.21 	-0.59 	-2.93 	358.34 	358.75 	23.18 	2512.00 	0.02 	22392.60 	
0.00 	0.00 	0.00 	0.03 	0.06 	1.15 	0.56 	0.02 	0.47 	20.80 	-0.88 	-2.93 	357.58 	357.97 	23.17 	2462.00 	0.02 	22476.35 	
0.00 	0.00 	0.00 	0.03 	0.05 	1.12 	0.05 	0.05 	0.77 	20.21 	-0.59 	-3.22 	358.34 	358.73 	23.19 	2417.00 	0.02 	22552.92 	
0.00 	0.00 	0.00 	0.03 	0.03 	1.13 	0.02 	-0.46 	0.90 	19.92 	-1.46 	-2.93 	355.79 	356.01 	23.18 	2371.00 	0.02 	22632.40 	
0.00 	0.00 	0.00 	0.01 	0.04 	1.13 	0.53 	0.00 	0.60 	21.09 	-0.88 	-3.22 	357.61 	357.96 	23.18 	2329.00 	0.02 	22706.06 	
0.00 	0.00 	0.00 	0.07 	0.04 	1.14 	-0.72 	0.03 	0.77 	20.51 	-0.59 	-3.22 	358.36 	358.60 	23.18 	2286.00 	0.02 	22782.60 	
0.00 	0.00 	0.00 	0.02 	0.04 	1.15 	1.21 	0.16 	0.87 	20.21 	-0.59 	-3.22 	358.34 	358.64 	23.18 	2247.00 	0.02 	22853.03 	
0.00 	0.00 	0.00 	0.01 	0.05 	1.11 	0.34 	-0.04 	0.79 	20.21 	-1.46 	-3.22 	355.86 	356.31 	23.17 	2210.00 	0.02 	22920.77 	
0.00 	0.00 	0.00 	0.04 	0.04 	1.13 	0.06 	0.08 	0.69 	20.80 	-1.76 	-2.64 	355.17 	355.38 	23.17 	2169.00 	0.02 	22996.92 	
0.00 	0.00 	0.00 	0.06 	0.05 	1.15 	-0.07 	0.11 	0.31 	20.21 	-0.88 	-3.52 	357.51 	357.84 	23.17 	2129.00 	0.02 	23072.34 	
0.00 	0.00 	0.00 	0.01 	0.05 	1.14 	0.53 	0.20 	0.28 	21.09 	-0.88 	-3.22 	357.61 	358.05 	23.17 	2095.00 	0.02 	23137.35 	
0.00 	0.00 	0.00 	0.01 	0.04 	1.14 	-0.61 	-0.25 	0.78 	20.51 	-1.17 	-3.52 	356.73 	357.15 	23.16 	2062.00 	0.02 	23201.28 	
0.00 	0.00 	0.00 	0.02 	0.05 	1.13 	0.59 	0.13 	0.66 	20.21 	-1.17 	-2.93 	356.68 	357.04 	23.17 	2028.00 	0.02 	23268.01 	
0.00 	0.00 	0.00 	0.06 	0.05 	1.14 	0.33 	0.11 	0.52 	20.21 	-1.46 	-3.52 	355.86 	356.22 	23.16 	1997.00 	0.02 	23329.65 	
0.00 	0.00 	0.00 	0.03 	0.04 	1.14 	0.67 	0.12 	0.55 	20.51 	-0.59 	-3.52 	358.36 	358.70 	23.16 	1968.00 	0.02 	23388.02 	
0.00 	0.00 	0.00 	0.01 	0.03 	1.13 	0.40 	0.11 	0.99 	20.21 	-0.88 	-2.93 	357.51 	357.77 	23.15 	1942.00 	0.02 	23440.95 	
0.00 	0.00 	0.00 	0.01 	0.04 	1.14 	0.69 	-0.28 	0.67 	21.09 	-1.17 	-3.22 	356.82 	357.17 	23.15 	1912.00 	0.02 	23502.74 	
0.00 	0.00 	0.00 	0.04 	0.04 	1.11 	-0.23 	0.13 	0.47 	20.80 	-1.17 	-2.93 	356.78 	357.06 	23.15 	1886.00 	0.02 	23556.92 	
0.00 	0.00 	0.00 	0.05 	0.05 	1.13 	0.32 	-0.28 	0.69 	19.92 	-1.17 	-2.93 	356.63 	356.93 	23.15 	1862.00 	0.02 	23607.48 	
0.00 	0.00 	0.00 	0.04 	0.05 	1.13 	0.82 	0.34 	0.82 	20.80 	-0.88 	-3.22 	357.58 	357.90 	23.15 	1836.00 	0.02 	23662.85 	
0.00 	0.00 	0.00 	0.05 	0.05 	1.12 	0.27 	-0.12 	0.54 	20.51 	-0.88 	-2.93 	357.55 	357.83 	23.15 	1804.00 	0.02 	23731.88 	
0.00 	0.00 	0.00 	0.02 	0.04 	1.14 	0.53 	-0.11 	0.70 	21.09 	-0.29 	-4.10 	359.20 	359.60 	23.14 	1784.00 	0.02 	23775.52 	
0.00 	0.00 	0.00 	0.03 	0.04 	1.13 	-0.33 	-0.08 	0.63 	20.51 	-0.88 	-3.22 	357.55 	357.85 	23.13 	1766.00 	0.02 	23815.14 	
0.00 	0.00 	0.00 	0.05 	0.04 	1.13 	0.39 	-0.10 	0.72 	20.51 	-1.17 	-3.22 	356.73 	357.01 	23.14 	1746.00 	0.02 	23859.55 	
0.00 	0.00 	0.00 	0.05 	0.05 	1.12 	0.64 	0.31 	0.76 	20.51 	-0.88 	-2.93 	357.55 	357.82 	23.14 	1725.00 	0.02 	23906.63 	
0.00 	0.00 	0.00 	0.06 	0.05 	1.14 	0.31 	0.08 	0.41 	20.51 	-1.17 	-3.22 	356.73 	357.02 	23.14 	1708.00 	0.02 	23945.08 	
0.00 	0.00 	0.00 	0.04 	0.05 	1.15 	0.95 	0.13 	0.79 	20.51 	-0.88 	-3.22 	357.55 	357.87 	23.13 	1688.00 	0.02 	23990.71 	
0.00 	0.00 	0.00 	0.02 	0.04 	1.14 	0.71 	-0.13 	0.85 	20.21 	-0.59 	-3.52 	358.34 	358.71 	23.14 	1672.00 	0.02 	24027.54 	
0.00 	0.00 	0.00 	0.05 	0.04 	1.12 	0.63 	0.35 	0.91 	20.51 	-0.88 	-2.93 	357.55 	357.76 	23.13 	1656.00 	0.02 	24064.65 	
0.00 	0.00 	0.00 	0.08 	0.06 	1.12 	-0.02 	0.25 	0.43 	20.51 	-0.88 	-2.34 	357.55 	357.69 	23.13 	1639.00 	0.02 	24104.40 	
0.00 	0.00 	0.00 	0.05 	0.06 	1.14 	0.43 	0.05 	0.89 	20.51 	-0.59 	-3.52 	358.36 	358.77 	23.13 	1623.00 	0.02 	24142.12 	
0.00 	0.00 	0.00 	0.02 	0.03 	1.14 	-0.64 	-0.24 	0.55 	20.51 	-0.88 	-3.22 	357.55 	357.79 	23.12 	1610.00 	0.02 	24172.98 	
0.00 	0.00 	0.00 	0.02 	0.06 	1.13 	-0.40 	-0.07 	0.66 	20.21 	-0.88 	-3.22 	357.51 	357.99 	23.12 	1591.00 	0.02 	24218.46 	
0.00 	0.00 	0.00 	0.03 	0.05 	1.14 	-0.79 	0.11 	0.74 	19.92 	-0.59 	-2.93 	358.32 	358.64 	23.11 	1578.00 	0.02 	24249.83 	
0.00 	0.00 	0.00 	0.03 	0.04 	1.13 	0.61 	0.09 	0.74 	20.51 	-0.59 	-2.93 	358.36 	358.61 	23.11 	1567.00 	0.02 	24276.54 	
0.00 	0.00 	0.00 	0.06 	0.05 	1.13 	-0.08 	0.02 	0.71 	21.09 	-0.59 	-2.64 	358.41 	358.59 	23.11 	1552.00 	0.02 	24313.21 	
0.00 	0.00 	0.00 	0.05 	0.05 	1.12 	0.66 	0.02 	0.41 	20.51 	-0.59 	-3.22 	358.36 	358.67 	23.11 	1538.00 	0.02 	24347.69 	
0.00 	0.00 	0.00 	0.04 	0.06 	1.12 	0.06 	-0.09 	0.37 	20.51 	-1.17 	-3.22 	356.73 	357.16 	23.11 	1528.00 	0.02 	24372.48 	
0.00 	0.00 	0.00 	0.04 	0.05 	1.12 	-0.47 	-0.05 	0.54 	20.51 	-0.88 	-2.93 	357.55 	357.83 	23.09 	1511.00 	0.01 	24414.92 	
0.00 	0.00 	0.00 	0.02 	0.04 	1.14 	0.24 	-0.10 	0.81 	20.21 	-1.17 	-3.22 	356.68 	357.00 	23.09 	1498.00 	0.01 	24447.63 	
0.00 	0.00 	0.00 	0.04 	0.04 	1.13 	0.76 	-0.01 	0.69 	20.80 	-0.88 	-2.93 	357.58 	357.82 	23.09 	1483.00 	0.01 	24485.66 	
0.00 	0.00 	0.00 	0.03 	0.04 	1.13 	0.72 	0.07 	0.39 	20.51 	-0.29 	-3.22 	359.18 	359.48 	23.08 	1478.00 	0.01 	24498.42 	
0.00 	0.00 	0.00 	0.02 	0.05 	1.12 	0.10 	-0.17 	0.83 	20.51 	-1.76 	-2.93 	355.10 	355.45 	23.07 	1465.00 	0.01 	24531.72 	
0.00 	0.00 	0.00 	0.03 	0.04 	1.13 	-0.05 	0.14 	1.04 	20.51 	-0.88 	-3.22 	357.55 	357.82 	23.07 	1453.00 	0.01 	24562.68 	
0.00 	0.00 	0.00 	0.03 	0.04 	1.13 	0.57 	-0.14 	0.57 	20.80 	-0.59 	-3.22 	358.39 	358.66 	23.07 	1440.00 	0.01 	24596.45 	
0.00 	0.00 	0.00 	0.05 	0.04 	1.12 	-0.26 	-0.39 	0.69 	20.51 	-0.88 	-3.22 	357.55 	357.80 	23.06 	1433.00 	0.01 	24614.74 	
0.00 	0.00 	0.00 	0.05 	0.04 	1.11 	0.50 	-0.11 	0.63 	19.92 	-1.17 	-3.52 	356.63 	356.94 	23.07 	1422.00 	0.01 	24643.63 	
0.00 	0.00 	0.00 	0.05 	0.05 	1.13 	1.03 	0.05 	0.37 	20.51 	-0.88 	-3.22 	357.55 	357.87 	23.06 	1412.00 	0.01 	24670.04 	
0.00 	0.00 	0.00 	0.03 	0.06 	1.12 	0.59 	-0.03 	0.56 	20.51 	-1.17 	-2.93 	356.73 	357.13 	23.04 	1402.00 	0.01 	24696.61 	
0.00 	0.00 	0.00 	0.04 	0.05 	1.14 	0.27 	-0.28 	1.09 	20.80 	-0.88 	-3.52 	357.58 	357.97 	23.05 	1393.00 	0.01 	24720.66 	
0.00 	0.00 	0.00 	0.02 	0.05 	1.14 	0.95 	0.14 	0.87 	20.51 	-0.88 	-2.93 	357.55 	357.94 	23.04 	1383.00 	0.01 	24747.52 	
0.00 	0.00 	0.00 	0.01 	0.04 	1.13 	0.31 	-0.02 	0.72 	20.51 	-0.88 	-3.52 	357.55 	357.95 	23.04 	1375.00 	0.01 	24769.12 	
0.00 	0.00 	0.00 	0.04 	0.05 	1.13 	0.69 	-0.21 	0.37 	20.21 	-0.88 	-3.52 	357.51 	357.89 	23.05 	1368.00 	0.01 	24788.11 	
0.00 	0.00 	0.00 	0.03 	0.05 	1.13 	0.21 	0.06 	0.82 	19.92 	-1.46 	-2.64 	355.79 	356.10 	23.03 	1358.00 	0.01 	24815.37 	
0.00 	0.00 	0.00 	0.04 	0.05 	1.12 	0.78 	-0.14 	0.48 	20.21 	-1.17 	-3.22 	356.68 	357.05 	23.03 	1350.00 	0.01 	24837.30 	
0.00 	0.00 	0.00 	0.05 	0.06 	1.14 	0.26 	-0.34 	0.69 	20.51 	-0.88 	-3.52 	357.55 	357.97 	23.03 	1343.00 	0.01 	24856.57 	
0.00 	0.00 	0.00 	0.02 	0.04 	1.13 	0.07 	0.20 	0.56 	20.51 	-0.29 	-3.52 	359.18 	359.56 	23.03 	1336.00 	0.01 	24875.92 	
0.00 	0.00 	0.00 	0.03 	0.06 	1.15 	0.26 	-0.16 	0.83 	20.21 	-0.88 	-3.52 	357.51 	358.01 	23.03 	1329.00 	0.01 	24895.36 	
0.00 	0.00 	0.00 	-0.00 	0.04 	1.13 	0.71 	-0.18 	0.79 	20.51 	-0.88 	-2.93 	357.55 	357.84 	23.02 	1326.00 	0.01 	24903.71 	
0.00 	0.00 	0.00 	0.01 	0.04 	1.12 	0.50 	-0.08 	0.72 	20.80 	-1.17 	-3.22 	356.78 	357.08 	23.02 	1314.00 	0.01 	24937.28 	
0.00 	0.00 	0.00 	0.02 	0.04 	1.12 	0.05 	0.01 	0.82 	20.51 	-0.59 	-3.22 	358.36 	358.64 	23.01 	1310.00 	0.01 	24948.53 	
0.00 	0.00 	0.00 	0.04 	0.04 	1.13 	0.69 	-0.11 	1.25 	20.51 	-0.59 	-2.64 	358.36 	358.56 	23.00 	1302.00 	0.01 	24971.11 	
0.00 	0.00 	0.00 	0.06 	0.05 	1.13 	-0.06 	-0.24 	0.42 	20.51 	-1.46 	-2.93 	355.91 	356.19 	23.00 	1299.00 	0.01 	24979.60 	
0.00 	0.00 	0.00 	0.04 	0.05 	1.14 	0.22 	-0.02 	0.38 	20.80 	-1.17 	-2.93 	356.78 	357.08 	23.00 	1292.00 	0.01 	24999.49 	
0.00 	0.00 	0.00 	0.02 	0.04 	1.13 	-0.24 	-0.04 	0.66 	20.80 	-1.17 	-2.93 	356.78 	357.09 	23.00 	1285.00 	0.01 	25019.46 	
0.00 	0.00 	0.00 	0.03 	0.05 	1.12 	-0.21 	-0.36 	0.72 	20.80 	-0.88 	-3.22 	357.58 	357.92 	22.98 	1280.00 	0.01 	25033.78 	
0.00 	0.00 	0.00 	0.02 	0.03 	1.13 	0.02 	0.12 	0.89 	20.51 	-0.88 	-2.64 	357.55 	357.77 	22.99 	1273.00 	0.01 	25053.90 	
0.00 	0.00 	0.00 	0.05 	0.03 	1.14 	1.07 	0.02 	0.60 	20.80 	-1.17 	-3.22 	356.78 	357.01 	22.97 	1266.00 	0.01 	25074.11 	
0.00 	0.00 	0.00 	0.05 	0.06 	1.14 	0.24 	0.08 	0.53 	21.09 	-1.46 	-3.22 	356.03 	356.39 	22.97 	1263.00 	0.01 	25082.80 	
0.00 	0.00 	0.00 	0.03 	0.04 	1.13 	0.63 	0.18 	0.50 	20.80 	-1.17 	-2.93 	356.78 	357.04 	22.97 	1253.00 	0.01 	25111.89 	
0.00 	0.00 	0.00 	0.04 	0.06 	1.14 	0.86 	0.11 	0.56 	20.51 	-1.17 	-3.52 	356.73 	357.22 	22.98 	1247.00 	0.01 	25129.44 	
0.00 	0.00 	0.00 	0.03 	0.06 	1.12 	-0.37 	0.05 	0.96 	20.21 	-0.88 	-2.64 	357.51 	357.89 	22.96 	1243.00 	0.01 	25141.17 	
0.00 	0.00 	0.00 	0.01 	0.03 	1.14 	0.00 	-0.24 	0.98 	20.21 	-0.88 	-3.52 	357.51 	357.81 	22.96 	1238.00 	0.01 	25155.88 	
0.00 	0.00 	0.00 	0.02 	0.03 	1.14 	0.69 	-0.07 	0.78 	20.51 	-1.17 	-3.22 	356.73 	356.97 	22.97 	1231.00 	0.01 	25176.56 	
0.00 	0.00 	0.00 	0.02 	0.03 	1.14 	0.97 	0.05 	0.91 	20.21 	-0.88 	-3.81 	357.51 	357.79 	22.97 	1229.00 	0.01 	25182.48 	
0.00 	0.00 	0.00 	0.06 	0.05 	1.13 	0.18 	-0.27 	0.61 	20.51 	-0.88 	-2.64 	357.55 	357.78 	22.96 	1225.00 	0.01 	25194.36 	
0.00 	0.00 	0.00 	0.05 	0.06 	1.14 	0.39 	0.02 	0.49 	20.51 	-1.46 	-3.22 	355.91 	356.31 	22.96 	1218.00 	0.01 	25215.21 	
0.00 	0.00 	0.00 	0.03 	0.03 	1.13 	0.69 	0.21 	0.78 	20.21 	-0.88 	-3.22 	357.51 	357.76 	22.95 	1213.00 	0.01 	25230.16 	
0.00 	0.00 	0.00 	0.02 	0.05 	1.14 	0.53 	-0.01 	0.56 	20.51 	-0.88 	-2.93 	357.55 	357.92 	22.95 	1212.00 	0.01 	25233.16 	
0.00 	0.00 	0.00 	0.05 	0.06 	1.13 	-0.10 	0.14 	0.56 	20.51 	-1.46 	-3.22 	355.91 	356.29 	22.95 	1205.00 	0.01 	25254.20 	
0.00 	0.00 	0.00 	0.04 	0.04 	1.13 	0.03 	-0.26 	0.55 	20.51 	-0.29 	-2.64 	359.18 	359.38 	22.95 	1199.00 	0.01 	25272.30 	
0.00 	0.00 	0.00 	0.05 	0.05 	1.12 	-0.18 	-0.11 	0.69 	20.51 	-0.59 	-3.22 	358.36 	358.68 	22.95 	1198.00 	0.01 	25275.33 	
0.00 	0.00 	0.00 	0.01 	0.02 	1.13 	0.56 	-0.05 	0.63 	20.51 	-1.46 	-2.93 	355.91 	356.09 	22.94 	1190.00 	0.01 	25299.60 	
0.00 	0.00 	0.00 	0.03 	0.04 	1.12 	0.75 	0.00 	0.92 	20.51 	-1.46 	-3.22 	355.91 	356.22 	22.94 	1189.00 	0.01 	25302.65 	
0.00 	0.00 	0.00 	0.07 	0.06 	1.14 	-0.20 	-0.04 	0.83 	20.51 	-0.88 	-3.22 	357.55 	357.87 	22.93 	1180.00 	0.01 	25330.14 	
0.00 	0.00 	0.00 	0.04 	0.04 	1.13 	0.35 	-0.34 	0.88 	19.92 	-1.17 	-3.22 	356.63 	356.93 	22.93 	1176.00 	0.01 	25342.41 	
0.00 	0.00 	0.00 	0.03 	0.05 	1.12 	0.91 	0.12 	1.63 	20.21 	-0.88 	-3.22 	357.51 	357.91 	22.92 	1168.00 	0.01 	25367.05 	
0.00 	0.00 	0.00 	0.03 	0.04 	1.14 	0.37 	0.11 	0.53 	20.51 	-0.88 	-3.22 	357.55 	357.85 	22.93 	1166.00 	0.01 	25373.24 	
0.00 	0.00 	0.00 	0.02 	0.04 	1.14 	-0.26 	0.08 	0.63 	21.09 	-0.59 	-2.64 	358.41 	358.63 	22.92 	1164.00 	0.01 	25379.43 	
0.00 	0.00 	0.00 	0.04 	0.05 	1.12 	-0.05 	-0.03 	0.92 	20.51 	-0.59 	-3.52 	358.36 	358.72 	22.92 	1156.00 	0.01 	25404.28 	
0.00 	0.00 	0.00 	0.03 	0.05 	1.14 	-0.08 	-0.27 	0.34 	19.63 	-1.17 	-3.52 	356.58 	357.03 	22.91 	1151.00 	0.01 	25419.88 	
0.00 	0.00 	0.00 	0.02 	0.05 	1.16 	1.14 	0.06 	0.69 	20.80 	-0.88 	-3.22 	357.58 	357.99 	22.92 	1148.00 	0.01 	25429.27 	
0.00 	0.00 	0.00 	0.03 	0.05 	1.14 	-1.11 	-0.19 	0.81 	19.92 	-1.46 	-3.52 	355.79 	356.21 	22.91 	1146.00 	0.01 	25435.54 	
0.00 	0.00 	0.00 	0.02 	0.04 	1.14 	0.89 	0.11 	0.96 	20.80 	-0.88 	-3.22 	357.58 	357.92 	22.91 	1142.00 	0.01 	25448.11 	
0.00 	0.00 	0.00 	0.01 	0.06 	1.14 	0.42 	-0.05 	0.60 	20.51 	-0.59 	-2.93 	358.36 	358.81 	22.89 	1136.00 	0.01 	25467.02 	
0.00 	0.00 	0.00 	0.06 	0.06 	1.14 	0.88 	0.10 	0.49 	20.21 	-0.88 	-3.52 	357.51 	357.93 	22.90 	1133.00 	0.01 	25476.51 	
0.00 	0.00 	0.00 	0.06 	0.05 	1.13 	-0.04 	-0.31 	0.92 	20.51 	-0.88 	-3.22 	357.55 	357.81 	22.90 	1132.00 	0.01 	25479.68 	
0.00 	0.00 	0.00 	0.05 	0.06 	1.12 	-0.29 	-0.22 	0.78 	20.80 	-0.88 	-3.52 	357.58 	358.01 	22.89 	1127.00 	0.01 	25495.55 	
0.00 	0.00 	0.00 	0.02 	0.05 	1.15 	0.60 	-0.07 	0.48 	20.21 	-0.88 	-2.93 	357.51 	357.89 	22.89 	1127.00 	0.01 	25495.55 	
0.00 	0.00 	0.00 	0.02 	0.04 	1.13 	-0.27 	-0.05 	1.05 	20.51 	-1.46 	-3.22 	355.91 	356.23 	22.89 	1121.00 	0.01 	25514.67 	
0.00 	0.00 	0.00 	0.06 	0.04 	1.14 	-0.05 	0.05 	0.92 	20.51 	-1.17 	-2.64 	356.73 	356.92 	22.88 	1118.00 	0.01 	25524.26 	
0.00 	0.00 	0.00 	0.06 	0.06 	1.15 	0.12 	-0.13 	0.63 	20.21 	-1.76 	-3.22 	355.03 	355.42 	22.88 	1114.00 	0.01 	25537.08 	
0.00 	0.00 	0.00 	0.05 	0.07 	1.11 	-0.79 	-0.14 	0.42 	20.80 	-0.59 	-2.64 	358.39 	358.70 	22.89 	1114.00 	0.01 	25537.08 	
0.00 	0.00 	0.00 	0.03 	0.04 	1.11 	0.62 	0.28 	0.71 	20.21 	-1.46 	-3.52 	355.86 	356.22 	22.87 	1110.00 	0.01 	25549.94 	
0.00 	0.00 	0.00 	0.01 	0.03 	1.12 	-0.95 	-0.05 	0.72 	20.51 	-1.76 	-3.22 	355.10 	355.38 	22.88 	1104.00 	0.01 	25569.29 	
0.00 	0.00 	0.00 	0.05 	0.04 	1.12 	0.89 	0.02 	0.68 	20.51 	-1.17 	-2.93 	356.73 	356.99 	22.87 	1103.00 	0.01 	25572.53 	
0.00 	0.00 	0.00 	0.03 	0.03 	1.14 	0.46 	0.02 	0.47 	20.21 	-0.88 	-2.93 	357.51 	357.75 	22.87 	1101.00 	0.01 	25579.01 	
0.00 	0.00 	0.00 	0.05 	0.05 	1.15 	0.53 	0.18 	0.47 	20.80 	-0.88 	-2.64 	357.58 	357.82 	22.87 	1097.00 	0.01 	25591.99 	
0.00 	0.00 	0.00 	0.04 	0.05 	1.15 	0.27 	0.15 	0.85 	19.92 	-1.17 	-3.22 	356.63 	357.00 	22.86 	1095.00 	0.01 	25598.49 	
0.00 	0.00 	0.00 	0.02 	0.05 	1.12 	-0.38 	0.06 	0.97 	20.51 	-0.59 	-2.93 	358.36 	358.71 	22.86 	1093.00 	0.01 	25605.01 	
0.00 	0.00 	0.00 	0.02 	0.05 	1.13 	-0.31 	-0.08 	0.90 	20.80 	-1.17 	-3.22 	356.78 	357.16 	22.86 	1088.00 	0.01 	25621.33 	
0.00 	0.00 	0.00 	0.03 	0.04 	1.13 	0.28 	-0.12 	0.72 	20.21 	-1.17 	-3.81 	356.68 	357.10 	22.86 	1084.00 	0.01 	25634.44 	
0.00 	0.00 	0.00 	0.04 	0.04 	1.15 	0.61 	0.11 	0.64 	19.92 	-1.17 	-2.93 	356.63 	356.92 	22.86 	1083.00 	0.01 	25637.72 	
0.00 	0.00 	0.00 	0.04 	0.05 	1.16 	0.77 	-0.05 	0.57 	20.21 	-0.88 	-3.22 	357.51 	357.85 	22.85 	1081.00 	0.01 	25644.30 	
0.00 	0.00 	0.00 	0.05 	0.05 	1.16 	1.06 	-0.09 	0.78 	20.21 	-0.88 	-2.93 	357.51 	357.77 	22.85 	1074.00 	0.01 	25667.38 	
0.00 	0.00 	0.00 	0.02 	0.04 	1.15 	0.50 	0.14 	0.92 	20.21 	-0.88 	-3.22 	357.51 	357.83 	22.84 	1074.00 	0.01 	25667.38 	
0.00 	0.00 	0.00 	0.00 	0.05 	1.12 	0.72 	-0.02 	0.79 	20.80 	-0.59 	-3.22 	358.39 	358.82 	22.84 	1071.00 	0.01 	25677.31 	
0.00 	0.00 	0.00 	0.06 	0.05 	1.14 	0.33 	0.07 	0.59 	20.80 	-0.88 	-2.93 	357.58 	357.84 	22.84 	1070.00 	0.01 	25680.63 	
0.00 	0.00 	0.00 	0.04 	0.05 	1.14 	0.63 	0.10 	0.37 	20.80 	-1.46 	-3.22 	355.97 	356.33 	22.84 	1065.00 	0.01 	25697.24 	
0.00 	0.00 	0.00 	0.05 	0.04 	1.15 	1.19 	-0.02 	0.85 	20.80 	-0.88 	-3.22 	357.58 	357.85 	22.84 	1065.00 	0.01 	25697.24 	
0.00 	0.00 	0.00 	0.04 	0.05 	1.15 	0.71 	0.02 	0.72 	20.51 	-0.59 	-3.22 	358.36 	358.71 	22.83 	1063.00 	0.01 	25703.90 	
0.00 	0.00 	0.00 	0.02 	0.04 	1.13 	-0.48 	-0.18 	0.72 	20.21 	-1.46 	-2.64 	355.86 	356.09 	22.82 	1059.00 	0.01 	25717.26 	
0.00 	0.00 	0.00 	0.02 	0.04 	1.12 	0.98 	-0.02 	0.66 	20.51 	-1.46 	-3.22 	355.91 	356.27 	22.83 	1058.00 	0.01 	25720.60 	
0.00 	0.00 	0.00 	0.02 	0.05 	1.14 	-0.14 	0.11 	0.88 	20.21 	-1.17 	-3.81 	356.68 	357.16 	22.83 	1056.00 	0.01 	25727.30 	
0.00 	0.00 	0.00 	0.05 	0.06 	1.13 	0.36 	-0.04 	0.49 	20.21 	-1.76 	-3.52 	355.03 	355.52 	22.83 	1054.00 	0.01 	25734.01 	
0.00 	0.00 	0.00 	0.03 	0.04 	1.13 	0.54 	0.02 	0.70 	20.21 	-0.88 	-2.93 	357.51 	357.77 	22.83 	1050.00 	0.01 	25747.46 	
0.00 	0.00 	0.00 	0.04 	0.07 	1.15 	0.55 	0.19 	0.69 	20.21 	-0.88 	-3.22 	357.51 	358.00 	22.82 	1049.00 	0.01 	25750.83 	
0.00 	0.00 	0.00 	0.01 	0.03 	1.14 	0.04 	-0.10 	0.94 	20.51 	-0.88 	-2.93 	357.55 	357.75 	22.82 	1046.00 	0.01 	25760.95 	
0.00 	0.00 	0.00 	0.01 	0.05 	1.12 	-0.01 	-0.18 	0.62 	20.51 	-0.88 	-2.93 	357.55 	357.95 	22.82 	1046.00 	0.01 	25760.95 	
0.00 	0.00 	0.00 	0.04 	0.03 	1.13 	0.24 	0.05 	0.24 	20.51 	-1.17 	-3.22 	356.73 	356.96 	22.81 	1042.00 	0.01 	25774.48 	
0.00 	0.00 	0.00 	0.04 	0.05 	1.14 	0.41 	0.13 	0.58 	20.51 	-0.88 	-3.22 	357.55 	357.86 	22.81 	1040.00 	0.01 	25781.26 	
0.00 	0.00 	0.00 	0.07 	0.06 	1.14 	-0.90 	-0.04 	0.56 	19.92 	-1.17 	-3.22 	356.63 	356.96 	22.82 	1037.00 	0.01 	25791.46 	
0.00 	0.00 	0.00 	0.04 	0.05 	1.14 	0.48 	-0.01 	0.72 	20.80 	-0.88 	-2.93 	357.58 	357.89 	22.80 	1035.00 	0.01 	25798.26 	
0.00 	0.00 	0.00 	0.01 	0.04 	1.13 	-0.38 	0.05 	0.77 	20.80 	-0.59 	-2.93 	358.39 	358.72 	22.81 	1035.00 	0.01 	25798.26 	
0.00 	0.00 	0.00 	0.06 	0.04 	1.13 	0.77 	-0.24 	0.55 	20.51 	-0.88 	-3.81 	357.55 	357.85 	22.81 	1031.00 	0.01 	25811.91 	
0.00 	0.00 	0.00 	0.04 	0.07 	1.15 	0.50 	-0.27 	0.51 	20.80 	-0.88 	-3.52 	357.58 	358.08 	22.81 	1029.00 	0.01 	25818.75 	
0.00 	0.00 	0.00 	0.02 	0.04 	1.13 	0.21 	-0.03 	0.79 	21.09 	-0.88 	-2.93 	357.61 	357.91 	22.80 	1029.00 	0.01 	25818.75 	
0.00 	0.00 	0.00 	0.01 	0.04 	1.12 	-0.21 	0.02 	0.64 	20.80 	-0.88 	-3.52 	357.58 	357.95 	22.80 	1028.00 	0.01 	25822.18 	
0.00 	0.00 	0.00 	0.02 	0.03 	1.12 	0.16 	-0.18 	0.58 	20.51 	-0.88 	-3.52 	357.55 	357.84 	22.79 	1026.00 	0.01 	25829.04 	
0.00 	0.00 	0.00 	0.05 	0.06 	1.13 	1.43 	0.01 	0.31 	20.80 	-1.17 	-2.64 	356.78 	357.05 	22.79 	1024.00 	0.01 	25835.90 	
0.00 	0.00 	0.00 	0.05 	0.05 	1.14 	-0.02 	-0.08 	0.43 	20.51 	-0.59 	-2.64 	358.36 	358.62 	22.78 	1022.00 	0.01 	25842.78 	
0.00 	0.00 	0.00 	0.01 	0.05 	1.13 	-0.79 	-0.24 	0.80 	21.09 	-0.88 	-3.22 	357.61 	357.98 	22.79 	1018.00 	0.01 	25856.57 	
0.00 	0.00 	0.00 	0.01 	0.05 	1.15 	1.13 	-0.21 	0.76 	20.80 	-0.88 	-3.22 	357.58 	357.97 	22.78 	1020.00 	0.01 	25849.67 	
0.00 	0.00 	0.00 	0.02 	0.05 	1.14 	-0.40 	0.07 	0.50 	20.80 	-0.59 	-3.22 	358.39 	358.74 	22.78 	1016.00 	0.01 	25863.48 	
0.00 	0.00 	0.00 	0.06 	0.05 	1.11 	-0.32 	-0.14 	0.58 	19.92 	-0.88 	-2.93 	357.47 	357.76 	22.78 	1014.00 	0.01 	25870.40 	
0.00 	0.00 	0.00 	0.06 	0.04 	1.14 	1.07 	-0.21 	0.72 	20.51 	-1.17 	-2.93 	356.73 	356.93 	22.76 	1017.00 	0.01 	25860.02 	
0.00 	0.00 	0.00 	0.05 	0.06 	1.14 	0.26 	-0.21 	0.73 	21.09 	-0.88 	-3.22 	357.61 	357.95 	22.76 	1013.00 	0.01 	25873.87 	
0.00 	0.00 	0.00 	0.02 	0.04 	1.12 	-0.43 	0.08 	0.92 	20.21 	-1.17 	-2.93 	356.68 	356.96 	22.77 	1007.00 	0.01 	25894.72 	
0.00 	0.00 	0.00 	0.05 	0.05 	1.14 	0.21 	-0.21 	0.20 	20.51 	-1.17 	-3.52 	356.73 	357.10 	22.76 	999.00 	0.01 	25922.67 	
0.00 	0.00 	0.00 	0.04 	0.06 	1.13 	0.95 	0.05 	0.28 	20.51 	-1.17 	-3.22 	356.73 	357.17 	22.76 	994.00 	0.01 	25940.24 	
0.00 	0.00 	0.00 	0.06 	0.06 	1.12 	-0.05 	0.05 	0.56 	20.80 	-0.88 	-2.93 	357.58 	357.88 	22.75 	988.00 	0.01 	25961.41 	
0.00 	0.00 	0.00 	0.01 	0.04 	1.13 	0.09 	0.06 	1.04 	20.80 	-0.59 	-3.52 	358.39 	358.74 	22.76 	983.00 	0.01 	25979.14 	
0.00 	0.00 	0.00 	0.05 	0.04 	1.14 	0.55 	-0.03 	0.69 	21.09 	-0.59 	-2.93 	358.41 	358.64 	22.74 	984.00 	0.01 	25975.58 	
0.00 	0.00 	0.00 	0.06 	0.05 	1.14 	0.80 	0.15 	0.27 	20.21 	-1.17 	-2.93 	356.68 	356.94 	22.75 	980.00 	0.01 	25989.80 	
0.00 	0.00 	0.00 	0.05 	0.05 	1.14 	0.29 	-0.15 	0.52 	20.21 	-1.17 	-3.52 	356.68 	357.02 	22.74 	973.00 	0.01 	26014.80 	
0.00 	0.00 	0.00 	0.01 	0.05 	1.12 	0.24 	0.00 	0.88 	20.51 	-0.88 	-2.93 	357.55 	357.94 	22.73 	959.00 	0.01 	26065.24 	
0.00 	0.00 	0.00 	0.04 	0.04 	1.12 	0.90 	-0.04 	0.61 	20.51 	-0.88 	-2.93 	357.55 	357.82 	22.73 	949.00 	0.01 	26101.63 	
0.00 	0.00 	0.00 	0.02 	0.05 	1.13 	0.19 	-0.03 	0.50 	20.51 	-1.46 	-3.22 	355.91 	356.30 	22.73 	941.00 	0.01 	26130.97 	
0.00 	0.00 	0.00 	0.01 	0.04 	1.13 	0.79 	0.14 	1.03 	20.80 	-1.46 	-2.64 	355.97 	356.26 	22.71 	936.00 	0.01 	26149.41 	
0.00 	0.00 	0.00 	0.02 	0.05 	1.12 	0.28 	0.05 	0.59 	20.21 	-0.59 	-3.22 	358.34 	358.73 	22.71 	932.00 	0.01 	26164.22 	
0.00 	0.00 	0.00 	0.05 	0.06 	1.14 	0.11 	-0.11 	0.59 	20.80 	-1.17 	-2.93 	356.78 	357.11 	22.70 	927.00 	0.01 	26182.80 	
0.00 	0.00 	0.00 	0.03 	0.04 	1.11 	-0.24 	-0.34 	0.85 	20.51 	-0.59 	-2.93 	358.36 	358.62 	22.70 	921.00 	0.01 	26205.21 	
0.00 	0.00 	0.00 	0.05 	0.04 	1.13 	0.71 	-0.02 	0.93 	20.51 	-0.59 	-2.93 	358.36 	358.59 	22.70 	913.00 	0.01 	26235.27 	
0.00 	0.00 	0.00 	0.06 	0.05 	1.13 	-0.37 	-0.21 	0.70 	19.92 	-1.46 	-3.22 	355.79 	356.12 	22.69 	901.00 	0.01 	26280.76 	
0.00 	0.00 	0.00 	0.04 	0.05 	1.13 	0.13 	-0.09 	0.50 	20.80 	-0.88 	-2.93 	357.58 	357.88 	22.68 	891.00 	0.01 	26319.05 	
0.00 	0.00 	0.00 	0.02 	0.03 	1.13 	0.92 	0.00 	0.60 	20.80 	-0.88 	-2.93 	357.58 	357.81 	22.67 	884.00 	0.01 	26346.06 	
0.00 	0.00 	0.00 	0.02 	0.05 	1.13 	0.35 	0.03 	0.63 	20.21 	-0.88 	-2.93 	357.51 	357.89 	22.66 	881.00 	0.01 	26357.69 	
0.00 	0.00 	0.00 	0.05 	0.05 	1.13 	0.53 	0.11 	0.76 	20.80 	-1.17 	-3.52 	356.78 	357.14 	22.66 	878.00 	0.01 	26369.35 	
0.00 	0.00 	0.00 	0.02 	0.04 	1.15 	0.55 	-0.01 	0.76 	20.80 	-0.88 	-2.93 	357.58 	357.84 	22.64 	874.00 	0.01 	26384.95 	
0.00 	0.00 	0.00 	0.02 	0.06 	1.11 	0.37 	-0.01 	0.92 	20.51 	-1.17 	-2.05 	356.73 	357.00 	22.63 	873.00 	0.01 	26388.86 	
0.00 	0.00 	0.00 	0.05 	0.06 	1.15 	-0.41 	-0.05 	0.37 	20.51 	-1.46 	-2.64 	355.91 	356.22 	22.62 	862.00 	0.01 	26432.09 	
0.00 	0.00 	0.00 	0.06 	0.05 	1.14 	0.39 	0.11 	0.61 	20.21 	-0.88 	-2.64 	357.51 	357.75 	22.62 	848.00 	0.01 	26487.77 	
0.00 	0.00 	0.00 	0.03 	0.05 	1.13 	0.51 	-0.16 	0.51 	21.09 	-1.46 	-2.64 	356.03 	356.30 	22.60 	844.00 	0.01 	26503.81 	
0.00 	0.00 	0.00 	0.00 	0.05 	1.13 	-0.21 	0.12 	0.89 	20.51 	-1.76 	-2.93 	355.10 	355.52 	22.60 	837.00 	0.01 	26532.04 	
0.00 	0.00 	0.00 	0.03 	0.04 	1.13 	1.31 	0.01 	0.89 	19.92 	-0.29 	-3.22 	359.16 	359.44 	22.58 	832.00 	0.01 	26552.32 	
0.00 	0.00 	0.00 	0.03 	0.05 	1.11 	0.82 	0.20 	0.36 	20.80 	-0.88 	-2.93 	357.58 	357.89 	22.58 	826.00 	0.01 	26576.78 	
0.00 	0.00 	0.00 	0.05 	0.05 	1.15 	0.65 	-0.18 	0.34 	20.80 	-0.88 	-2.93 	357.58 	357.86 	22.57 	819.00 	0.01 	26605.51 	
0.00 	0.00 	0.00 	0.02 	0.06 	1.14 	-0.50 	-0.03 	0.82 	20.51 	-0.88 	-3.22 	357.55 	357.99 	22.55 	820.00 	0.01 	26601.39 	
0.00 	0.00 	0.00 	0.03 	0.04 	1.14 	0.20 	-0.12 	0.31 	20.21 	-0.88 	-2.34 	357.51 	357.72 	22.54 	813.00 	0.01 	26630.29 	
0.00 	0.00 	0.00 	0.03 	0.05 	1.12 	0.76 	-0.04 	0.74 	20.21 	-1.17 	-2.93 	356.68 	357.04 	22.53 	803.00 	0.01 	26671.92 	
0.00 	0.00 	0.00 	0.05 	0.06 	1.14 	-0.05 	-0.10 	0.54 	19.92 	-0.88 	-2.93 	357.47 	357.80 	22.50 	801.00 	0.01 	26680.29 	
0.00 	0.00 	0.00 	0.00 	0.03 	1.11 	0.09 	-0.08 	0.77 	20.51 	-0.88 	-3.81 	357.55 	357.87 	22.49 	798.00 	0.01 	26692.89 	
0.00 	0.00 	0.00 	0.03 	0.05 	1.13 	0.35 	0.19 	0.49 	21.09 	-1.17 	-2.93 	356.82 	357.14 	22.46 	797.00 	0.01 	26697.10 	
0.00 	0.00 	0.00 	0.04 	0.05 	1.13 	-0.37 	-0.11 	0.50 	21.09 	-1.46 	-2.93 	356.03 	356.30 	22.46 	792.00 	0.01 	26718.20 	
0.00 	0.00 	0.00 	0.07 	0.04 	1.14 	1.34 	-0.08 	0.62 	20.51 	-1.17 	-2.93 	356.73 	356.93 	22.44 	789.00 	0.01 	26730.92 	
0.00 	0.00 	0.00 	0.02 	0.04 	1.13 	0.36 	-0.31 	0.76 	21.39 	-1.17 	-3.22 	356.86 	357.19 	22.42 	788.00 	0.01 	26735.16 	
0.00 	0.00 	0.00 	0.01 	0.04 	1.14 	0.75 	0.15 	1.06 	21.09 	-0.59 	-2.93 	358.41 	358.70 	22.40 	783.00 	0.01 	26756.46 	
0.00 	0.00 	0.00 	0.03 	0.05 	1.13 	0.35 	-0.12 	0.27 	20.21 	-1.46 	-3.22 	355.86 	356.29 	22.38 	775.00 	0.01 	26790.76 	
0.00 	0.00 	0.00 	0.05 	0.05 	1.13 	0.82 	-0.10 	0.43 	20.51 	-1.76 	-2.64 	355.10 	355.34 	22.37 	771.00 	0.01 	26808.03 	
0.00 	0.00 	0.00 	0.03 	0.05 	1.12 	-0.80 	-0.09 	0.61 	20.51 	-1.17 	-3.22 	356.73 	357.09 	22.35 	767.00 	0.01 	26825.36 	
0.00 	0.00 	0.00 	0.02 	0.03 	1.14 	0.45 	-0.14 	0.69 	21.09 	-1.46 	-3.52 	356.03 	356.32 	22.33 	765.00 	0.01 	26834.05 	
0.00 	0.00 	0.00 	0.02 	0.05 	1.15 	-0.03 	-0.11 	0.68 	20.51 	-1.46 	-3.52 	355.91 	356.31 	22.31 	762.00 	0.01 	26847.13 	
0.00 	0.00 	0.00 	0.02 	0.05 	1.13 	-1.33 	-0.28 	0.74 	20.80 	-1.46 	-2.93 	355.97 	356.31 	22.29 	759.00 	0.01 	26860.24 	
0.00 	0.00 	0.00 	0.04 	0.04 	1.13 	0.40 	-0.08 	0.50 	20.51 	-0.59 	-3.22 	358.36 	358.61 	22.28 	760.00 	0.01 	26855.87 	
0.00 	0.00 	0.00 	0.06 	0.04 	1.14 	0.83 	0.08 	0.34 	20.51 	-1.17 	-2.34 	356.73 	356.87 	22.25 	755.00 	0.01 	26877.80 	
0.00 	0.00 	0.00 	0.05 	0.04 	1.16 	0.43 	-0.01 	0.32 	20.51 	-1.17 	-3.52 	356.73 	357.05 	22.23 	751.00 	0.01 	26895.43 	
0.00 	0.00 	0.00 	0.04 	0.05 	1.14 	-0.05 	-0.14 	0.73 	20.80 	-1.17 	-2.34 	356.78 	357.01 	22.21 	746.00 	0.01 	26917.57 	
0.00 	0.00 	0.00 	0.02 	0.05 	1.13 	0.13 	-0.38 	0.76 	20.21 	-1.46 	-2.64 	355.86 	356.16 	22.20 	744.00 	0.01 	26926.47 	
0.00 	0.00 	0.00 	0.04 	0.05 	1.14 	1.24 	0.05 	0.50 	20.80 	-1.17 	-2.93 	356.78 	357.09 	22.16 	743.00 	0.01 	26930.92 	
0.00 	0.00 	0.00 	0.04 	0.04 	1.13 	1.17 	0.02 	0.65 	21.09 	-1.46 	-2.64 	356.03 	356.25 	22.14 	740.00 	0.01 	26944.31 	
0.00 	0.00 	0.00 	0.03 	0.06 	1.15 	0.12 	0.09 	1.05 	20.80 	-2.05 	-3.22 	354.37 	354.81 	22.10 	741.00 	0.01 	26939.84 	
0.00 	0.00 	0.00 	0.01 	0.04 	1.14 	0.61 	-0.11 	0.83 	20.80 	-0.59 	-2.64 	358.39 	358.63 	22.08 	738.00 	0.01 	26953.26 	
0.00 	0.00 	0.00 	0.03 	0.04 	1.14 	0.37 	0.14 	0.37 	20.80 	-1.17 	-2.64 	356.78 	357.02 	22.05 	734.00 	0.01 	26971.22 	
0.00 	0.00 	0.00 	0.03 	0.06 	1.15 	0.34 	0.08 	0.59 	20.51 	-1.46 	-3.81 	355.91 	356.44 	22.02 	729.00 	0.01 	26993.78 	
0.00 	0.00 	0.00 	0.07 	0.06 	1.15 	0.49 	-0.21 	0.95 	20.51 	-1.76 	-2.64 	355.10 	355.33 	22.01 	726.00 	0.01 	27007.38 	
0.00 	0.00 	0.00 	0.03 	0.04 	1.14 	1.50 	-0.42 	0.78 	20.51 	-1.17 	-2.93 	356.73 	356.99 	21.98 	724.00 	0.01 	27016.47 	
0.00 	0.00 	0.00 	-0.00 	0.05 	1.11 	0.09 	-0.25 	0.90 	20.80 	-1.76 	-2.93 	355.17 	355.61 	21.96 	724.00 	0.01 	27016.47 	
0.00 	0.00 	0.00 	0.06 	0.05 	1.11 	-0.08 	0.05 	0.48 	20.80 	-1.46 	-3.52 	355.97 	356.30 	21.93 	720.00 	0.01 	27034.71 	
0.00 	0.00 	0.00 	0.03 	0.06 	1.14 	0.06 	0.13 	0.70 	21.09 	-1.46 	-3.22 	356.03 	356.49 	21.90 	720.00 	0.01 	27034.71 	
0.00 	0.00 	0.00 	0.03 	0.04 	1.14 	1.82 	-0.12 	0.69 	20.51 	-1.46 	-3.22 	355.91 	356.19 	21.87 	717.00 	0.01 	27048.44 	
0.00 	0.00 	0.00 	0.02 	0.03 	1.13 	0.25 	-0.07 	0.65 	20.51 	-1.76 	-3.22 	355.10 	355.33 	21.84 	712.00 	0.01 	27071.44 	
0.00 	0.00 	0.00 	0.02 	0.04 	1.12 	0.59 	-0.07 	1.13 	20.80 	-0.88 	-2.93 	357.58 	357.88 	21.81 	711.00 	0.01 	27076.05 	
0.00 	0.00 	0.00 	0.02 	0.05 	1.13 	0.56 	0.04 	0.63 	20.80 	-1.46 	-2.64 	355.97 	356.29 	21.77 	709.00 	0.01 	27085.30 	
0.00 	0.00 	0.00 	0.05 	0.03 	1.13 	0.66 	-0.16 	0.66 	20.80 	-1.46 	-2.93 	355.97 	356.16 	21.74 	706.00 	0.01 	27099.21 	
0.00 	0.00 	0.00 	0.04 	0.07 	1.14 	-0.43 	-0.34 	0.64 	20.51 	-1.76 	-3.22 	355.10 	355.56 	21.71 	707.00 	0.01 	27094.57 	
0.00 	0.00 	0.00 	0.04 	0.04 	1.13 	-0.51 	-0.14 	0.79 	20.80 	-0.88 	-2.93 	357.58 	357.80 	21.68 	703.00 	0.01 	27113.16 	
0.00 	0.00 	0.00 	0.02 	0.05 	1.13 	0.26 	0.11 	0.85 	21.09 	-1.76 	-2.64 	355.24 	355.55 	21.64 	705.00 	0.01 	27103.85 	
0.00 	0.00 	0.00 	0.02 	0.03 	1.12 	0.31 	0.25 	0.65 	21.09 	-1.46 	-2.64 	356.03 	356.23 	21.60 	702.00 	0.01 	27117.83 	
0.00 	0.00 	0.00 	0.03 	0.03 	1.13 	-0.18 	0.05 	0.36 	20.51 	-1.76 	-3.22 	355.10 	355.37 	21.57 	700.00 	0.01 	27127.16 	
0.00 	0.00 	0.00 	0.05 	0.06 	1.13 	0.54 	0.04 	0.34 	21.09 	-1.76 	-3.52 	355.24 	355.65 	21.53 	700.00 	0.01 	27127.16 	
0.00 	0.00 	0.00 	0.06 	0.04 	1.15 	1.37 	0.10 	0.63 	20.51 	-1.46 	-3.22 	355.91 	356.17 	21.49 	693.00 	0.01 	27160.03 	
0.00 	0.00 	0.00 	0.01 	0.03 	1.16 	0.53 	0.21 	0.53 	21.09 	-0.88 	-2.64 	357.61 	357.83 	21.45 	691.00 	0.01 	27169.47 	
0.00 	0.00 	0.00 	0.01 	0.06 	1.11 	0.18 	0.17 	0.83 	20.80 	-0.88 	-3.22 	357.58 	358.10 	21.41 	694.00 	0.01 	27155.32 	
0.00 	0.00 	0.00 	0.06 	0.04 	1.15 	0.65 	0.13 	0.69 	21.09 	-1.46 	-3.22 	356.03 	356.27 	21.37 	691.00 	0.01 	27169.47 	
0.00 	0.00 	0.00 	0.04 	0.06 	1.14 	1.30 	-0.07 	0.43 	20.80 	-1.17 	-2.93 	356.78 	357.11 	21.33 	696.00 	0.01 	27145.91 	
0.00 	0.00 	0.00 	0.03 	0.03 	1.16 	1.12 	-0.01 	0.53 	20.51 	-0.88 	-2.93 	357.55 	357.76 	21.29 	692.00 	0.01 	27164.75 	
0.00 	0.00 	0.00 	0.03 	0.03 	1.15 	-0.53 	0.14 	0.76 	20.80 	-1.76 	-3.52 	355.17 	355.47 	21.25 	691.00 	0.01 	27169.47 	
0.00 	0.00 	0.00 	0.02 	0.04 	1.13 	1.63 	0.06 	0.50 	20.51 	-1.76 	-3.22 	355.10 	355.43 	21.21 	688.00 	0.01 	27183.67 	
0.00 	0.00 	0.00 	0.01 	0.04 	1.12 	0.11 	0.12 	0.78 	20.80 	-1.76 	-2.93 	355.17 	355.50 	21.17 	684.00 	0.01 	27202.68 	
0.00 	0.00 	0.00 	0.06 	0.05 	1.14 	-0.18 	-0.21 	0.69 	20.80 	-0.88 	-2.64 	357.58 	357.80 	21.12 	683.00 	0.01 	27207.45 	
0.00 	0.00 	0.00 	0.04 	0.05 	1.13 	0.18 	-0.20 	0.78 	20.51 	-2.05 	-2.05 	354.29 	354.49 	21.08 	682.00 	0.01 	27212.22 	
0.00 	0.00 	0.00 	0.02 	0.04 	1.13 	-0.42 	-0.37 	0.77 	21.09 	-1.46 	-2.64 	356.03 	356.30 	21.04 	684.00 	0.01 	27202.68 	
0.00 	0.00 	0.00 	0.01 	0.04 	1.11 	0.31 	-0.01 	0.68 	20.51 	-1.46 	-2.93 	355.91 	356.21 	20.98 	683.00 	0.01 	27207.45 	
0.00 	0.00 	0.00 	0.07 	0.04 	1.13 	-0.45 	0.22 	0.63 	20.80 	-1.17 	-2.93 	356.78 	356.97 	20.93 	684.00 	0.01 	27202.68 	
0.00 	0.00 	0.00 	0.02 	0.04 	1.13 	-0.75 	-0.21 	0.78 	21.09 	-1.76 	-3.52 	355.24 	355.61 	20.86 	680.00 	0.01 	27221.79 	
0.00 	0.00 	0.00 	0.01 	0.04 	1.12 	-0.24 	-0.05 	0.59 	20.80 	-2.05 	-2.64 	354.37 	354.62 	20.82 	679.00 	0.01 	27226.58 	
0.00 	0.00 	0.00 	0.02 	0.05 	1.13 	-0.24 	0.04 	0.50 	20.21 	-1.76 	-3.22 	355.03 	355.42 	20.75 	674.00 	0.01 	27250.61 	
0.00 	0.00 	0.00 	0.06 	0.06 	1.12 	0.04 	0.12 	0.69 	21.68 	-1.76 	-3.22 	355.36 	355.72 	20.70 	678.00 	0.01 	27231.38 	
0.00 	0.00 	0.00 	0.06 	0.03 	1.14 	0.51 	0.05 	0.50 	21.09 	-1.46 	-3.22 	356.03 	356.23 	20.66 	676.00 	0.01 	27240.98 	
0.00 	0.00 	0.00 	0.06 	0.05 	1.14 	0.37 	0.08 	0.38 	20.80 	-1.17 	-2.93 	356.78 	357.02 	20.62 	675.00 	0.01 	27245.79 	
0.00 	0.00 	0.00 	0.05 	0.06 	1.12 	0.50 	0.13 	1.07 	20.21 	-1.76 	-3.22 	355.03 	355.43 	20.56 	673.00 	0.01 	27255.44 	
0.00 	0.00 	0.00 	0.05 	0.05 	1.14 	0.76 	-0.11 	0.59 	21.09 	-1.76 	-3.22 	355.24 	355.55 	20.51 	673.00 	0.01 	27255.44 	
0.00 	0.00 	0.00 	0.01 	0.05 	1.13 	-0.44 	0.04 	0.76 	20.80 	-1.46 	-2.64 	355.97 	356.28 	20.46 	670.00 	0.01 	27269.94 	
0.00 	0.00 	0.00 	0.04 	0.06 	1.12 	-0.47 	-0.11 	0.56 	20.21 	-1.76 	-2.93 	355.03 	355.40 	20.40 	668.00 	0.01 	27279.65 	
0.00 	0.00 	0.00 	0.03 	0.04 	1.13 	0.68 	0.11 	0.86 	21.39 	-1.46 	-2.34 	356.08 	356.28 	20.36 	669.00 	0.01 	27274.79 	
0.00 	0.00 	0.00 	0.05 	0.05 	1.14 	0.35 	0.07 	0.51 	21.39 	-1.46 	-2.93 	356.08 	356.35 	20.31 	672.00 	0.01 	27260.27 	
0.00 	0.00 	0.00 	0.03 	0.04 	1.11 	-0.47 	0.08 	0.91 	20.21 	-1.46 	-2.93 	355.86 	356.16 	20.24 	670.00 	0.01 	27269.94 	
0.00 	0.00 	0.00 	0.04 	0.05 	1.15 	0.37 	0.13 	0.56 	20.80 	-1.46 	-2.93 	355.97 	356.29 	20.19 	671.00 	0.01 	27265.10 	
0.00 	0.00 	0.00 	0.07 	0.04 	1.12 	0.60 	0.05 	0.35 	21.39 	-1.46 	-3.22 	356.08 	356.31 	20.13 	671.00 	0.01 	27265.10 	
0.00 	0.00 	0.00 	0.05 	0.05 	1.16 	0.06 	0.08 	0.71 	20.51 	-1.17 	-3.22 	356.73 	357.06 	20.09 	672.00 	0.01 	27260.27 	
0.00 	0.00 	0.00 	0.00 	0.04 	1.12 	-0.37 	-0.03 	0.90 	21.68 	-1.46 	-2.93 	356.13 	356.45 	20.02 	668.00 	0.01 	27279.65 	
0.00 	0.00 	0.00 	0.02 	0.04 	1.12 	0.08 	-0.07 	0.30 	20.80 	-1.46 	-3.81 	355.97 	356.33 	19.99 	668.00 	0.01 	27279.65 	
0.00 	0.00 	0.00 	0.05 	0.04 	1.16 	0.37 	0.14 	0.72 	21.09 	-1.76 	-3.22 	355.24 	355.53 	19.92 	666.00 	0.01 	27289.37 	
0.00 	0.00 	0.00 	0.03 	0.04 	1.15 	1.17 	-0.08 	0.43 	21.39 	-2.05 	-3.22 	354.52 	354.85 	19.87 	664.00 	0.01 	27299.12 	
0.00 	0.00 	0.00 	0.01 	0.02 	1.14 	0.76 	0.22 	0.81 	20.51 	-1.46 	-3.22 	355.91 	356.13 	19.80 	666.00 	0.01 	27289.37 	
0.00 	0.00 	0.00 	0.07 	0.05 	1.13 	-0.34 	-0.02 	0.88 	21.09 	-1.17 	-2.93 	356.82 	357.07 	19.76 	664.00 	0.01 	27299.12 	
0.00 	0.00 	0.00 	0.02 	0.05 	1.16 	0.71 	0.08 	0.74 	20.80 	-1.76 	-3.22 	355.17 	355.55 	19.69 	665.00 	0.01 	27294.24 	
0.00 	0.00 	0.00 	0.00 	0.04 	1.12 	-0.82 	-0.30 	0.96 	20.51 	-1.46 	-3.22 	355.91 	356.31 	19.62 	663.00 	0.01 	27304.00 	
0.00 	0.00 	0.00 	0.04 	0.04 	1.14 	0.10 	-0.10 	0.38 	20.21 	-1.76 	-2.34 	355.03 	355.22 	19.57 	659.00 	0.01 	27323.60 	
0.00 	0.00 	0.00 	0.06 	0.05 	1.14 	0.15 	0.21 	0.60 	21.09 	-1.76 	-2.93 	355.24 	355.52 	19.51 	661.00 	0.01 	27313.79 	
0.00 	0.00 	0.00 	0.01 	0.03 	1.13 	-0.25 	0.00 	1.03 	20.80 	-1.76 	-2.64 	355.17 	355.40 	19.45 	660.00 	0.01 	27318.69 	
0.00 	0.00 	0.00 	0.01 	0.03 	1.12 	0.11 	-0.01 	0.86 	20.80 	-1.17 	-2.93 	356.78 	356.99 	19.40 	660.00 	0.01 	27318.69 	
0.00 	0.00 	0.00 	0.02 	0.05 	1.12 	0.02 	0.00 	0.58 	21.09 	-2.05 	-3.22 	354.45 	354.87 	19.33 	660.00 	0.01 	27318.69 	
0.00 	0.00 	0.00 	0.04 	0.04 	1.16 	1.34 	-0.12 	0.60 	20.80 	-1.17 	-2.93 	356.78 	357.03 	19.27 	661.00 	0.01 	27313.79 	
0.00 	0.00 	0.00 	0.01 	0.04 	1.14 	-0.43 	0.05 	0.82 	20.80 	-0.88 	-2.93 	357.58 	357.91 	19.22 	661.00 	0.01 	27313.79 	
0.00 	0.00 	0.00 	0.01 	0.03 	1.13 	-0.23 	0.21 	0.95 	21.09 	-1.76 	-3.52 	355.24 	355.56 	19.15 	659.00 	0.01 	27323.60 	
0.00 	0.00 	0.00 	0.03 	0.06 	1.14 	-0.34 	0.16 	0.40 	21.39 	-2.05 	-2.64 	354.52 	354.87 	19.10 	657.00 	0.01 	27333.43 	
0.00 	0.00 	0.00 	0.08 	0.04 	1.15 	0.75 	0.03 	0.31 	20.80 	-1.76 	-3.22 	355.17 	355.37 	19.04 	655.00 	0.01 	27343.29 	
0.00 	0.00 	0.00 	0.00 	0.04 	1.12 	-0.07 	0.17 	0.76 	21.39 	-1.46 	-2.93 	356.08 	356.39 	18.97 	657.00 	0.01 	27333.43 	
0.00 	0.00 	0.00 	0.00 	0.05 	1.12 	-0.48 	0.24 	0.81 	21.39 	-1.17 	-2.93 	356.86 	357.29 	18.91 	658.00 	0.01 	27328.51 	
0.00 	0.00 	0.00 	0.05 	0.03 	1.14 	0.91 	0.10 	0.58 	20.80 	-0.88 	-2.64 	357.58 	357.73 	18.84 	657.00 	0.01 	27333.43 	
0.00 	0.00 	0.00 	0.04 	0.04 	1.17 	1.44 	0.18 	0.34 	20.51 	-1.76 	-2.64 	355.10 	355.32 	18.79 	659.00 	0.01 	27323.60 	
0.00 	0.00 	0.00 	0.02 	0.04 	1.13 	0.08 	0.17 	1.01 	20.80 	-1.17 	-3.22 	356.78 	357.12 	18.72 	655.00 	0.01 	27343.29 	
0.00 	0.00 	0.00 	0.01 	0.05 	1.13 	0.45 	0.27 	0.90 	21.09 	-2.05 	-2.34 	354.45 	354.75 	18.66 	655.00 	0.01 	27343.29 	
0.00 	0.00 	0.00 	0.05 	0.03 	1.15 	1.66 	-0.05 	0.53 	21.09 	-1.17 	-2.64 	356.82 	356.96 	18.59 	656.00 	0.01 	27338.35 	
0.00 	0.00 	0.00 	0.03 	0.05 	1.14 	0.14 	0.02 	0.92 	20.80 	-1.76 	-2.93 	355.17 	355.52 	18.52 	655.00 	0.01 	27343.29 	
0.00 	0.00 	0.00 	0.02 	0.04 	1.12 	0.65 	0.14 	0.60 	21.39 	-1.46 	-2.34 	356.08 	356.31 	18.47 	653.00 	0.01 	27353.17 	
0.00 	0.00 	0.00 	0.05 	0.05 	1.14 	1.37 	-0.09 	0.86 	21.09 	-1.17 	-3.22 	356.82 	357.12 	18.42 	655.00 	0.01 	27343.29 	
0.00 	0.00 	0.00 	0.03 	0.05 	1.16 	0.00 	0.08 	0.98 	21.39 	-1.46 	-3.22 	356.08 	356.47 	18.35 	652.00 	0.01 	27358.12 	
0.00 	0.00 	0.00 	-0.00 	0.04 	1.14 	-0.02 	0.11 	1.15 	20.51 	-1.46 	-3.22 	355.91 	356.26 	18.28 	654.00 	0.01 	27348.22 	
0.00 	0.00 	0.00 	0.05 	0.03 	1.17 	1.34 	0.05 	0.60 	20.80 	-1.46 	-4.10 	355.97 	356.28 	18.23 	654.00 	0.01 	27348.22 	
0.00 	0.00 	0.00 	0.02 	0.04 	1.14 	0.02 	0.24 	0.84 	21.68 	-1.76 	-2.93 	355.36 	355.62 	18.16 	653.00 	0.01 	27353.17 	
0.00 	0.00 	0.00 	0.03 	0.03 	1.13 	-0.09 	-0.02 	0.53 	21.09 	-1.76 	-3.22 	355.24 	355.50 	18.09 	658.00 	0.01 	27328.51 	
0.00 	0.00 	0.00 	0.05 	0.03 	1.16 	1.10 	-0.12 	0.72 	20.80 	-1.17 	-3.22 	356.78 	357.00 	18.03 	654.00 	0.01 	27348.22 	
0.00 	0.00 	0.00 	0.02 	0.03 	1.14 	0.89 	-0.08 	0.85 	21.09 	-1.76 	-3.52 	355.24 	355.55 	17.97 	651.00 	0.01 	27363.07 	
0.00 	0.00 	0.00 	0.02 	0.07 	1.13 	-0.31 	0.25 	0.58 	21.09 	-1.76 	-3.22 	355.24 	355.75 	17.91 	652.00 	0.01 	27358.12 	
0.00 	0.00 	0.00 	0.06 	0.04 	1.16 	0.95 	0.28 	0.72 	21.09 	-1.46 	-2.64 	356.03 	356.21 	17.83 	653.00 	0.01 	27353.17 	
0.00 	0.00 	0.00 	0.01 	0.06 	1.14 	0.48 	0.16 	0.83 	21.09 	-2.05 	-2.93 	354.45 	354.89 	17.78 	654.00 	0.01 	27348.22 	
0.00 	0.00 	0.00 	0.02 	0.05 	1.15 	0.18 	0.01 	0.55 	21.09 	-1.46 	-3.81 	356.03 	356.50 	17.70 	652.00 	0.01 	27358.12 	
0.00 	0.00 	0.00 	0.01 	0.03 	1.14 	0.34 	-0.24 	0.64 	21.09 	-1.17 	-2.64 	356.82 	357.01 	17.64 	651.00 	0.01 	27363.07 	
0.00 	0.00 	0.00 	0.01 	0.05 	1.16 	-0.18 	0.22 	0.94 	21.09 	-1.76 	-3.52 	355.24 	355.71 	17.57 	650.00 	0.01 	27368.03 	
0.00 	0.00 	0.00 	0.04 	0.03 	1.13 	0.57 	0.18 	0.72 	20.80 	-1.76 	-2.93 	355.17 	355.36 	17.52 	649.00 	0.01 	27373.01 	
0.00 	0.00 	0.00 	0.04 	0.04 	1.15 	0.63 	0.14 	0.62 	21.68 	-2.64 	-3.22 	353.07 	353.35 	17.44 	650.00 	0.01 	27368.03 	
0.00 	0.00 	0.00 	0.01 	0.04 	1.13 	0.85 	-0.09 	0.89 	21.09 	-1.76 	-3.22 	355.24 	355.54 	17.39 	652.00 	0.01 	27358.12 	
0.00 	0.00 	0.00 	0.02 	0.03 	1.12 	0.77 	-0.14 	0.60 	21.09 	-1.46 	-3.22 	356.03 	356.27 	17.33 	649.00 	0.01 	27373.01 	
0.00 	0.00 	0.00 	0.03 	0.04 	1.15 	0.85 	0.05 	0.80 	21.09 	-2.05 	-2.93 	354.45 	354.72 	17.26 	651.00 	0.01 	27363.07 	
0.00 	0.00 	0.00 	0.01 	0.05 	1.13 	0.20 	-0.15 	0.88 	21.09 	-1.46 	-3.22 	356.03 	356.43 	17.18 	653.00 	0.01 	27353.17 	
0.00 	0.00 	0.00 	0.06 	0.05 	1.13 	0.33 	0.11 	0.61 	20.80 	-2.05 	-3.52 	354.37 	354.73 	17.12 	650.00 	0.01 	27368.03 	
0.00 	0.00 	0.00 	0.04 	0.05 	1.15 	0.60 	0.16 	0.60 	21.39 	-1.76 	-3.22 	355.30 	355.63 	17.05 	649.00 	0.01 	27373.01 	
0.00 	0.00 	0.00 	0.01 	0.04 	1.13 	0.32 	-0.14 	0.61 	20.80 	-1.46 	-3.22 	355.97 	356.33 	16.99 	646.00 	0.01 	27387.95 	
0.00 	0.00 	0.00 	0.05 	0.05 	1.15 	-0.06 	0.11 	0.72 	20.80 	-2.34 	-2.64 	353.57 	353.82 	16.93 	649.00 	0.01 	27373.01 	
0.00 	0.00 	0.00 	0.02 	0.05 	1.13 	-0.45 	0.25 	1.10 	21.39 	-1.17 	-2.64 	356.86 	357.14 	16.86 	650.00 	0.01 	27368.03 	
0.00 	0.00 	0.00 	0.01 	0.05 	1.12 	0.67 	0.37 	0.98 	20.80 	-2.05 	-2.93 	354.37 	354.73 	16.79 	652.00 	0.01 	27358.12 	
0.00 	0.00 	0.00 	0.06 	0.05 	1.13 	1.15 	0.18 	0.62 	21.68 	-1.46 	-2.93 	356.13 	356.36 	16.73 	651.00 	0.01 	27363.07 	
0.00 	0.00 	0.00 	0.04 	0.03 	1.14 	0.24 	0.04 	0.65 	20.80 	-1.46 	-2.93 	355.97 	356.18 	16.67 	651.00 	0.01 	27363.07 	
0.00 	0.00 	0.00 	0.03 	0.03 	1.15 	0.80 	-0.14 	0.50 	21.09 	-1.46 	-2.93 	356.03 	356.23 	16.61 	651.00 	0.01 	27363.07 	
0.00 	0.00 	0.00 	0.02 	0.05 	1.15 	-0.50 	0.18 	0.74 	20.80 	-1.76 	-3.22 	355.17 	355.55 	16.53 	649.00 	0.01 	27373.01 	
0.00 	0.00 	0.00 	0.02 	0.04 	1.13 	-0.25 	0.19 	0.72 	21.39 	-2.05 	-2.34 	354.52 	354.76 	16.47 	650.00 	0.01 	27368.03 	
0.00 	0.00 	0.00 	0.04 	0.02 	1.15 	1.19 	0.08 	0.51 	21.39 	-1.76 	-3.22 	355.30 	355.46 	16.40 	647.00 	0.01 	27382.96 	
0.00 	0.00 	0.00 	0.02 	0.04 	1.13 	-0.26 	0.22 	0.97 	21.39 	-2.05 	-2.64 	354.52 	354.77 	16.34 	653.00 	0.01 	27353.17 	
0.00 	0.00 	0.00 	0.01 	0.03 	1.14 	0.21 	-0.09 	0.83 	20.80 	-2.05 	-2.34 	354.37 	354.54 	16.27 	650.00 	0.01 	27368.03 	
0.00 	0.00 	0.00 	0.06 	0.03 	1.14 	1.76 	0.13 	0.56 	20.80 	-1.76 	-3.22 	355.17 	355.38 	16.20 	650.00 	0.01 	27368.03 	
0.00 	0.00 	0.00 	0.01 	0.04 	1.13 	0.19 	0.00 	0.92 	21.39 	-1.76 	-3.52 	355.30 	355.62 	16.14 	650.00 	0.01 	27368.03 	
0.00 	0.00 	0.00 	0.03 	0.06 	1.16 	-0.07 	0.09 	0.63 	21.39 	-2.05 	-3.52 	354.52 	354.99 	16.08 	651.00 	0.01 	27363.07 	
0.00 	0.00 	0.00 	0.03 	0.04 	1.16 	-0.47 	-0.21 	0.77 	21.39 	-1.46 	-2.93 	356.08 	356.36 	16.01 	648.00 	0.01 	27377.98 	
0.00 	0.00 	0.00 	0.02 	0.04 	1.15 	0.18 	0.14 	0.82 	21.39 	-1.46 	-2.93 	356.08 	356.39 	15.94 	649.00 	0.01 	27373.01 	
0.00 	0.00 	0.00 	0.04 	0.05 	1.14 	-0.67 	0.04 	0.71 	21.39 	-1.46 	-3.52 	356.08 	356.50 	15.87 	648.00 	0.01 	27377.98 	
0.00 	0.00 	0.00 	0.04 	0.03 	1.14 	0.98 	-0.17 	0.73 	21.39 	-2.05 	-3.22 	354.52 	354.73 	15.80 	648.00 	0.01 	27377.98 	
0.00 	0.00 	0.00 	0.01 	0.04 	1.13 	0.24 	0.12 	0.78 	21.39 	-1.46 	-2.64 	356.08 	356.36 	15.75 	651.00 	0.01 	27363.07 	
0.00 	0.00 	0.00 	0.03 	0.03 	1.14 	-0.02 	0.28 	0.65 	21.39 	-1.76 	-3.22 	355.30 	355.53 	15.67 	655.00 	0.01 	27343.29 	
0.00 	0.00 	0.00 	0.03 	0.05 	1.17 	0.77 	0.24 	0.82 	20.80 	-2.34 	-3.22 	353.57 	353.93 	15.61 	650.00 	0.01 	27368.03 	
0.00 	0.00 	0.00 	0.02 	0.04 	1.13 	0.96 	0.40 	0.47 	21.39 	-2.64 	-3.22 	352.97 	353.29 	15.54 	648.00 	0.01 	27377.98 	
0.00 	0.00 	0.00 	0.06 	0.05 	1.14 	1.01 	0.02 	0.66 	21.09 	-2.05 	-2.64 	354.45 	354.67 	15.48 	650.00 	0.01 	27368.03 	
0.00 	0.00 	0.00 	0.04 	0.05 	1.16 	0.63 	0.08 	0.51 	21.68 	-1.17 	-3.52 	356.91 	357.29 	15.40 	649.00 	0.01 	27373.01 	
0.00 	0.00 	0.00 	0.01 	0.03 	1.15 	0.51 	0.14 	0.84 	21.68 	-1.46 	-3.22 	356.13 	356.37 	15.35 	648.00 	0.01 	27377.98 	
0.00 	0.00 	0.00 	0.04 	0.05 	1.14 	0.73 	-0.24 	0.44 	20.80 	-2.05 	-3.22 	354.37 	354.72 	15.26 	649.00 	0.01 	27373.01 	
0.00 	0.00 	0.00 	0.02 	0.04 	1.14 	0.04 	-0.06 	0.85 	21.09 	-1.76 	-3.22 	355.24 	355.58 	15.21 	651.00 	0.01 	27363.07 	
0.00 	0.00 	0.00 	0.01 	0.05 	1.14 	0.08 	-0.01 	1.23 	21.39 	-1.17 	-2.93 	356.86 	357.21 	15.13 	654.00 	0.01 	27348.22 	
0.00 	0.00 	0.00 	0.04 	0.04 	1.15 	1.04 	-0.04 	0.34 	21.39 	-2.34 	-3.22 	353.75 	354.01 	15.07 	652.00 	0.01 	27358.12 	
0.00 	0.00 	0.00 	0.02 	0.04 	1.15 	-0.86 	0.12 	1.01 	21.09 	-1.46 	-3.52 	356.03 	356.40 	14.99 	649.00 	0.01 	27373.01 	
0.00 	0.00 	0.00 	0.05 	0.03 	1.13 	-0.70 	0.05 	0.55 	21.09 	-2.05 	-3.81 	354.45 	354.67 	14.93 	648.00 	0.01 	27377.98 	
0.00 	0.00 	0.00 	0.06 	0.04 	1.14 	0.77 	-0.02 	0.74 	20.51 	-1.76 	-2.64 	355.10 	355.30 	14.87 	650.00 	0.01 	27368.03 	
0.00 	0.00 	0.00 	0.03 	0.04 	1.12 	-0.29 	0.08 	0.63 	21.68 	-1.76 	-2.34 	355.36 	355.57 	14.81 	647.00 	0.01 	27382.96 	
0.00 	0.00 	0.00 	0.04 	0.04 	1.12 	0.31 	0.24 	0.91 	20.80 	-1.76 	-2.05 	355.17 	355.31 	14.75 	646.00 	0.01 	27387.95 	
0.00 	0.00 	0.00 	0.07 	0.04 	1.13 	0.84 	0.04 	0.58 	20.80 	-1.76 	-3.22 	355.17 	355.39 	14.68 	652.00 	0.01 	27358.12 	
0.00 	0.00 	0.00 	0.03 	0.03 	1.14 	1.33 	0.19 	0.53 	21.09 	-1.17 	-2.93 	356.82 	356.99 	14.61 	650.00 	0.01 	27368.03 	
0.00 	0.00 	0.00 	0.02 	0.03 	1.14 	0.19 	-0.28 	1.11 	21.39 	-1.46 	-2.93 	356.08 	356.30 	14.54 	649.00 	0.01 	27373.01 	
0.00 	0.00 	0.00 	0.07 	0.05 	1.14 	1.05 	0.06 	0.69 	20.80 	-1.76 	-3.81 	355.17 	355.58 	14.48 	646.00 	0.01 	27387.95 	
0.00 	0.00 	0.00 	0.01 	0.05 	1.15 	0.27 	0.39 	0.67 	21.39 	-1.46 	-3.22 	356.08 	356.50 	14.41 	646.00 	0.01 	27387.95 	
0.00 	0.00 	0.00 	0.00 	0.04 	1.14 	-0.17 	0.11 	0.84 	21.68 	-1.76 	-2.64 	355.36 	355.66 	14.35 	649.00 	0.01 	27373.01 	
0.00 	0.00 	0.00 	0.03 	0.05 	1.13 	1.07 	-0.08 	0.57 	21.39 	-0.88 	-3.22 	357.65 	358.02 	14.29 	647.00 	0.01 	27382.96 	
0.00 	0.00 	0.00 	0.02 	0.03 	1.14 	0.36 	-0.21 	0.62 	21.09 	-1.76 	-2.34 	355.24 	355.38 	14.23 	649.00 	0.01 	27373.01 	
0.00 	0.00 	0.00 	0.02 	0.03 	1.12 	-0.29 	-0.07 	0.76 	21.68 	-1.46 	-3.22 	356.13 	356.38 	14.17 	651.00 	0.01 	27363.07 	
0.00 	0.00 	0.00 	0.05 	0.02 	1.13 	-0.33 	0.07 	1.04 	21.09 	-2.05 	-2.93 	354.45 	354.60 	14.11 	652.00 	0.01 	27358.12 	
0.00 	0.00 	0.00 	0.05 	0.04 	1.15 	0.60 	0.29 	0.71 	21.39 	-1.17 	-3.52 	356.86 	357.16 	14.04 	649.00 	0.01 	27373.01 	
0.00 	0.00 	0.00 	0.03 	0.03 	1.14 	-0.21 	0.22 	0.66 	21.09 	-1.76 	-3.81 	355.24 	355.48 	13.97 	649.00 	0.01 	27373.01 	
0.00 	0.00 	0.00 	0.06 	0.06 	1.14 	0.80 	0.05 	0.65 	20.80 	-2.05 	-2.93 	354.37 	354.68 	13.92 	645.00 	0.01 	27392.94 	
0.00 	0.00 	0.00 	0.07 	0.05 	1.15 	1.31 	0.08 	0.37 	21.39 	-1.46 	-2.64 	356.08 	356.26 	13.85 	645.00 	0.01 	27392.94 	
0.00 	0.00 	0.00 	0.01 	0.05 	1.14 	0.33 	0.21 	0.74 	21.68 	-1.46 	-2.93 	356.13 	356.48 	13.79 	647.00 	0.01 	27382.96 	
0.00 	0.00 	0.00 	0.03 	0.04 	1.15 	0.43 	0.02 	0.87 	21.39 	-1.46 	-3.81 	356.08 	356.41 	13.73 	650.00 	0.01 	27368.03 	
0.00 	0.00 	0.00 	0.01 	0.04 	1.15 	0.09 	0.48 	0.57 	21.09 	-1.46 	-2.64 	356.03 	356.30 	13.67 	653.00 	0.01 	27353.17 	
0.00 	0.00 	0.00 	0.03 	0.03 	1.14 	0.20 	0.26 	0.84 	21.09 	-2.05 	-3.22 	354.45 	354.68 	13.60 	652.00 	0.01 	27358.12 	
0.00 	0.00 	0.00 	0.06 	0.04 	1.15 	0.93 	0.25 	0.55 	20.80 	-1.17 	-3.22 	356.78 	357.04 	13.54 	648.00 	0.01 	27377.98 	
0.00 	0.00 	0.00 	0.01 	0.02 	1.16 	1.30 	0.27 	0.87 	21.39 	-1.46 	-2.64 	356.08 	356.24 	13.46 	647.00 	0.01 	27382.96 	
0.00 	0.00 	0.00 	0.02 	0.04 	1.13 	-0.04 	0.11 	0.65 	21.39 	-2.05 	-3.22 	354.52 	354.82 	13.42 	645.00 	0.01 	27392.94 	
0.00 	0.00 	0.00 	0.07 	0.03 	1.15 	0.18 	-0.12 	0.45 	21.39 	-1.17 	-2.93 	356.86 	357.01 	13.35 	649.00 	0.01 	27373.01 	
0.00 	0.00 	0.00 	0.04 	0.03 	1.18 	1.51 	0.31 	0.30 	21.09 	-1.17 	-3.22 	356.82 	357.05 	13.29 	650.00 	0.01 	27368.03 	
0.00 	0.00 	0.00 	0.01 	0.03 	1.15 	0.19 	0.37 	0.85 	21.68 	-1.46 	-3.52 	356.13 	356.39 	13.22 	649.00 	0.01 	27373.01 	
0.00 	0.00 	0.00 	0.05 	0.05 	1.13 	1.11 	0.11 	0.47 	21.09 	-1.46 	-2.93 	356.03 	356.31 	13.17 	652.00 	0.01 	27358.12 	
0.00 	0.00 	0.00 	0.02 	0.04 	1.13 	-0.39 	0.05 	0.99 	21.39 	-1.17 	-2.34 	356.86 	357.05 	13.10 	653.00 	0.01 	27353.17 	
0.00 	0.00 	0.00 	0.05 	0.04 	1.12 	0.74 	-0.12 	0.96 	21.68 	-1.46 	-2.93 	356.13 	356.36 	13.03 	651.00 	0.01 	27363.07 	
0.00 	0.00 	0.00 	0.06 	0.06 	1.15 	0.39 	0.40 	0.72 	20.80 	-1.46 	-3.22 	355.97 	356.30 	12.98 	648.00 	0.01 	27377.98 	
0.00 	0.00 	0.00 	0.01 	0.04 	1.16 	0.66 	0.21 	0.88 	21.39 	-1.17 	-2.93 	356.86 	357.13 	12.92 	650.00 	0.01 	27368.03 	
0.00 	0.00 	0.00 	0.02 	0.03 	1.12 	0.31 	0.12 	0.97 	21.09 	-1.46 	-2.64 	356.03 	356.22 	12.86 	649.00 	0.01 	27373.01 	
0.00 	0.00 	0.00 	0.07 	0.05 	1.14 	0.69 	0.23 	0.53 	21.39 	-1.17 	-2.93 	356.86 	357.08 	12.81 	652.00 	0.01 	27358.12 	
0.00 	0.00 	0.00 	0.02 	0.03 	1.15 	1.37 	0.24 	0.67 	21.09 	-2.64 	-2.93 	352.87 	353.10 	12.73 	653.00 	0.01 	27353.17 	
0.00 	0.00 	0.00 	0.04 	0.05 	1.12 	-0.04 	0.05 	0.63 	21.68 	-1.46 	-3.22 	356.13 	356.50 	12.67 	654.00 	0.01 	27348.22 	
0.00 	0.00 	0.00 	0.03 	0.04 	1.16 	0.65 	0.35 	0.55 	20.80 	-1.46 	-3.22 	355.97 	356.30 	12.60 	652.00 	0.01 	27358.12 	
0.00 	0.00 	0.00 	0.02 	0.03 	1.16 	-0.27 	0.12 	0.67 	21.39 	-1.46 	-2.93 	356.08 	356.32 	12.54 	650.00 	0.01 	27368.03 	
0.00 	0.00 	0.00 	0.03 	0.03 	1.14 	0.56 	0.14 	0.94 	21.39 	-1.46 	-2.64 	356.08 	356.27 	12.47 	649.00 	0.01 	27373.01 	
0.00 	0.00 	0.00 	0.06 	0.05 	1.14 	-0.18 	0.06 	0.53 	21.39 	-1.76 	-2.05 	355.30 	355.42 	12.42 	647.00 	0.01 	27382.96 	
0.00 	0.00 	0.00 	0.01 	0.04 	1.14 	0.71 	0.03 	1.03 	21.09 	-1.76 	-2.93 	355.24 	355.52 	12.37 	650.00 	0.01 	27368.03 	
0.00 	0.00 	0.00 	0.02 	0.04 	1.14 	0.07 	-0.03 	0.80 	21.39 	-1.46 	-2.64 	356.08 	356.34 	12.30 	648.00 	0.01 	27377.98 	
0.00 	0.00 	0.00 	0.04 	0.04 	1.14 	0.80 	0.10 	0.63 	21.97 	-1.46 	-2.64 	356.19 	356.39 	12.25 	656.00 	0.01 	27338.35 	
0.00 	0.00 	0.00 	0.05 	0.03 	1.16 	1.67 	0.04 	0.46 	21.97 	-1.46 	-2.64 	356.19 	356.31 	12.19 	657.00 	0.01 	27333.43 	
0.00 	0.00 	0.00 	0.01 	0.03 	1.15 	0.07 	0.18 	0.82 	21.09 	-1.17 	-2.93 	356.82 	357.07 	12.11 	656.00 	0.01 	27338.35 	
0.00 	0.00 	0.00 	0.00 	0.04 	1.13 	-0.13 	0.14 	1.21 	21.39 	-1.17 	-2.05 	356.86 	357.10 	12.05 	650.00 	0.01 	27368.03 	
0.00 	0.00 	0.00 	0.03 	0.04 	1.14 	1.13 	0.30 	0.50 	21.68 	-1.46 	-3.22 	356.13 	356.45 	11.99 	650.00 	0.01 	27368.03 	
0.00 	0.00 	0.00 	0.05 	0.04 	1.14 	0.24 	0.11 	0.48 	21.39 	-1.17 	-2.64 	356.86 	357.07 	11.93 	651.00 	0.01 	27363.07 	
0.00 	0.00 	0.00 	0.03 	0.06 	1.12 	0.69 	0.11 	1.08 	21.09 	-1.76 	-2.93 	355.24 	355.62 	11.89 	652.00 	0.01 	27358.12 	
0.00 	0.00 	0.00 	0.03 	0.04 	1.17 	0.53 	0.25 	1.02 	21.68 	-1.17 	-2.34 	356.91 	357.08 	11.82 	656.00 	0.01 	27338.35 	
0.00 	0.00 	0.00 	0.01 	0.04 	1.15 	0.28 	0.63 	0.62 	21.68 	-1.17 	-2.64 	356.91 	357.15 	11.75 	653.00 	0.01 	27353.17 	
0.00 	0.00 	0.00 	0.06 	0.04 	1.13 	1.11 	0.25 	0.60 	21.68 	-0.88 	-2.64 	357.68 	357.84 	11.71 	661.00 	0.01 	27313.79 	
0.00 	0.00 	0.00 	0.04 	0.03 	1.15 	1.05 	0.19 	0.72 	21.09 	-1.17 	-2.34 	356.82 	356.96 	11.64 	657.00 	0.01 	27333.43 	
0.00 	0.00 	0.00 	0.07 	0.03 	1.13 	1.07 	0.03 	0.63 	21.68 	-1.17 	-2.64 	356.91 	357.01 	11.57 	650.00 	0.01 	27368.03 	
0.00 	0.00 	0.00 	0.01 	0.03 	1.16 	0.27 	0.29 	0.89 	21.68 	-1.17 	-3.52 	356.91 	357.20 	11.51 	648.00 	0.01 	27377.98 	
0.00 	0.00 	0.00 	0.03 	0.04 	1.16 	1.63 	-0.05 	0.75 	21.68 	-1.46 	-2.93 	356.13 	356.39 	11.46 	648.00 	0.01 	27377.98 	
0.00 	0.00 	0.00 	0.04 	0.05 	1.17 	1.17 	0.27 	0.76 	21.68 	-1.76 	-2.64 	355.36 	355.60 	11.40 	647.00 	0.01 	27382.96 	
0.00 	0.00 	0.00 	0.01 	0.05 	1.16 	0.25 	0.41 	0.80 	21.68 	-2.05 	-3.22 	354.60 	354.97 	11.36 	653.00 	0.01 	27353.17 	
0.00 	0.00 	0.00 	0.03 	0.04 	1.16 	1.14 	0.21 	0.73 	22.27 	-2.05 	-2.34 	354.74 	354.91 	11.31 	652.00 	0.01 	27358.12 	
0.00 	0.00 	0.00 	-0.00 	0.04 	1.13 	-0.72 	-0.07 	0.74 	21.97 	-0.88 	-2.34 	357.71 	357.96 	11.23 	657.00 	0.01 	27333.43 	
0.00 	0.00 	0.00 	0.02 	0.04 	1.18 	0.40 	0.05 	0.31 	21.68 	-2.05 	-2.64 	354.60 	354.84 	11.17 	653.00 	0.01 	27353.17 	
0.00 	0.00 	0.00 	0.05 	0.04 	1.16 	1.33 	0.11 	0.58 	21.39 	-1.46 	-2.34 	356.08 	356.22 	11.12 	649.00 	0.01 	27373.01 	
0.00 	0.00 	0.00 	0.04 	0.04 	1.15 	0.61 	0.31 	0.51 	21.39 	-1.46 	-2.64 	356.08 	356.28 	11.06 	648.00 	0.01 	27377.98 	
0.00 	0.00 	0.00 	0.03 	0.03 	1.14 	0.17 	0.09 	0.92 	21.39 	-2.05 	-2.64 	354.52 	354.72 	11.01 	644.00 	0.01 	27397.94 	
0.00 	0.00 	0.00 	0.03 	0.05 	1.13 	-1.62 	0.18 	0.79 	21.97 	-2.05 	-2.64 	354.67 	354.94 	10.97 	649.00 	0.01 	27373.01 	
0.00 	0.00 	0.00 	0.03 	0.04 	1.16 	0.26 	0.22 	0.41 	21.97 	-1.46 	-2.34 	356.19 	356.38 	10.90 	654.00 	0.01 	27348.22 	
0.00 	0.00 	0.00 	0.04 	0.05 	1.16 	-0.02 	0.11 	0.56 	21.68 	-1.76 	-3.22 	355.36 	355.70 	10.85 	658.00 	0.01 	27328.51 	
0.00 	0.00 	0.00 	0.01 	0.05 	1.16 	-0.31 	0.08 	1.15 	21.09 	-1.46 	-2.64 	356.03 	356.35 	10.80 	660.00 	0.01 	27318.69 	
0.00 	0.00 	0.00 	0.03 	0.03 	1.15 	0.09 	0.18 	0.79 	21.39 	-1.17 	-2.64 	356.86 	357.03 	10.73 	657.00 	0.01 	27333.43 	
0.00 	0.00 	0.00 	0.04 	0.05 	1.16 	0.17 	0.00 	0.65 	21.09 	-2.05 	-2.34 	354.45 	354.68 	10.68 	650.00 	0.01 	27368.03 	
0.00 	0.00 	0.00 	0.06 	0.02 	1.16 	0.82 	0.01 	0.82 	22.27 	-1.17 	-2.34 	356.99 	357.05 	10.63 	648.00 	0.01 	27377.98 	
0.00 	0.00 	0.00 	0.02 	0.04 	1.14 	0.68 	0.39 	1.08 	21.68 	-1.46 	-2.93 	356.13 	356.41 	10.58 	646.00 	0.01 	27387.95 	
0.00 	0.00 	0.00 	0.00 	0.05 	1.15 	-1.01 	-0.05 	0.85 	21.39 	-1.46 	-1.76 	356.08 	356.31 	10.54 	649.00 	0.01 	27373.01 	
0.00 	0.00 	0.00 	0.03 	0.03 	1.17 	1.12 	0.08 	0.38 	21.68 	-2.05 	-2.64 	354.60 	354.79 	10.50 	651.00 	0.01 	27363.07 	
0.00 	0.00 	0.00 	0.06 	0.04 	1.16 	1.01 	0.11 	0.63 	21.97 	-1.17 	-2.64 	356.95 	357.13 	10.44 	653.00 	0.01 	27353.17 	
0.00 	0.00 	0.00 	0.04 	0.03 	1.15 	1.01 	0.40 	1.08 	21.39 	-1.17 	-2.93 	356.86 	357.07 	10.40 	658.00 	0.01 	27328.51 	
0.00 	0.00 	0.00 	0.03 	0.02 	1.14 	-0.30 	0.16 	0.64 	21.68 	-1.46 	-2.34 	356.13 	356.26 	10.35 	653.00 	0.01 	27353.17 	
0.00 	0.00 	0.00 	0.05 	0.06 	1.13 	0.47 	0.47 	0.64 	21.97 	-1.46 	-2.05 	356.19 	356.36 	10.29 	646.00 	0.01 	27387.95 	
0.00 	0.00 	0.00 	0.07 	0.04 	1.14 	0.11 	0.21 	0.37 	22.27 	-1.46 	-2.34 	356.24 	356.33 	10.24 	647.00 	0.01 	27382.96 	
