temperature C 	 humidity % 	 gyroX 	 gyroY 	 gyroZ 	 accelX 	 accelY 	 accelZ 	 accelTotal 	 pressureIMU 	 temperatureIMU 	 altitude 	
temperature C 	 humidity % 	 gyroX 	 gyroY 	 gyroZ 	 accelX 	 accelY 	 accelZ 	 accelTotal 	 pressureIMU 	 temperatureIMU 	 altitude 	
23	76	2.28	-0.38	-14.44	-1.96	0.28	10.19	252.17	1012.15	24.23	9.15	
23	76	-0.32	0.77	-1.28	-3.46	0.67	9.68	254.32	1012.18	24.29	8.89	
23	76	15.95	16.61	3.67	-2.35	2.35	10.58	253.10	1012.08	24.30	9.78	
23	76	9.58	16.01	13.66	-5.12	7.41	6.85	254.11	1012.10	24.31	9.56	
23	76	-12.24	47.99	23.53	-3.68	7.56	6.19	251.34	1012.07	24.36	9.81	
23	76	5.32	5.61	-0.32	-3.66	8.45	4.45	251.14	1012.16	24.41	9.09	
23	76	11.14	20.00	78.99	2.23	1.67	10.80	271.92	1012.06	24.41	9.92	
23	77	-78.20	-11.31	67.91	-2.20	4.41	7.74	281.84	1012.12	24.38	9.41	
23	76	-21.52	100.82	56.12	-5.28	9.85	4.26	274.04	1012.12	24.42	9.38	
23	76	-81.55	1.88	41.65	-4.33	5.89	2.08	260.13	1012.10	24.49	9.60	
23	76	1.59	6.05	42.56	-3.77	8.04	0.53	257.28	1012.01	24.45	10.37	
23	76	17.27	28.14	70.93	0.94	3.71	10.42	260.93	1012.13	24.55	9.32	
24	78	-19.36	13.09	78.76	0.81	3.20	9.16	278.39	1012.24	24.50	8.39	
24	76	7.66	56.40	26.48	-0.42	3.14	7.93	268.21	1012.20	24.53	8.77	
24	76	5.19	-3.85	-3.92	-1.28	6.49	8.01	257.32	1012.10	24.60	9.56	
24	75	-37.03	17.55	12.03	-7.87	7.26	-2.33	265.27	1012.25	24.60	8.32	
24	74	8.13	1.68	-1.76	-3.62	6.20	-6.53	260.73	1012.26	24.56	8.25	
24	74	2.76	6.05	9.23	-3.80	6.89	-5.00	265.36	1012.14	24.57	9.27	
24	74	-16.33	-16.36	-16.27	-2.01	3.45	-4.19	255.06	1012.15	24.59	9.19	
24	73	-7.70	20.30	-10.33	-1.63	2.17	-7.98	254.75	1012.15	24.59	9.18	
24	73	1.96	-1.23	-6.68	-0.05	0.24	-8.93	252.10	1012.21	24.59	8.67	
24	73	-4.16	8.66	-63.02	-0.20	-2.97	-10.22	249.85	1012.33	24.64	7.70	
24	73	-1.91	2.85	2.31	-0.95	-0.74	-9.07	251.88	1012.17	24.65	8.98	
24	72	-0.30	3.82	-5.15	-0.12	-0.06	-9.53	251.44	1012.22	24.65	8.57	
24	73	-0.19	-0.41	0.41	-0.17	-0.04	-9.40	251.94	1012.18	24.66	8.94	
24	73	0.67	0.48	3.23	-0.33	-0.24	-9.57	252.30	1012.21	24.69	8.70	
24	72	-0.31	-0.13	0.45	-0.16	-0.06	-9.48	252.20	1012.18	24.67	8.91	
24	72	-13.94	-55.74	-1.34	-1.04	2.89	-10.84	253.19	1012.18	24.70	8.94	
24	72	-1.63	-16.89	-17.02	2.68	9.10	-1.16	255.84	1012.04	24.71	10.08	
24	72	7.72	3.05	8.53	1.29	9.15	-3.57	255.75	1012.21	24.78	8.66	
24	75	-12.78	18.02	75.24	-3.61	1.51	-8.97	255.70	1012.21	24.77	8.64	
24	75	-286.72	149.63	195.20	4.30	11.37	-2.63	257.62	1012.27	24.80	8.19	
24	75	132.08	157.18	99.64	3.10	10.90	2.27	252.49	1012.23	24.83	8.50	
24	74	-9.65	0.49	-0.21	1.93	9.08	-2.58	255.12	1012.23	24.85	8.47	
24	75	11.86	6.68	-11.12	-0.20	4.13	-9.04	253.05	1012.17	24.87	9.02	
24	76	3.68	-3.51	-3.40	-0.20	-0.09	-9.47	252.72	1012.21	24.87	8.64	
24	75	0.00	-0.53	0.25	-0.11	-0.02	-9.45	253.80	1012.23	24.87	8.50	
24	75	1.47	-7.83	9.25	-0.20	0.41	-9.24	253.52	1012.27	24.88	8.17	
24	74	-0.13	-0.63	0.16	-0.12	-0.01	-9.44	253.68	1012.19	24.85	8.84	
24	74	2.40	7.17	1.66	0.06	-0.07	-9.50	253.85	1012.31	24.91	7.82	
24	73	-0.35	3.18	0.56	-0.07	-0.10	-9.46	258.38	1012.24	24.87	8.43	
24	73	-0.09	-0.50	0.20	-0.13	-0.04	-9.45	258.59	1012.24	24.89	8.45	
24	73	-2.22	-0.34	0.38	-0.12	-0.04	-9.47	258.72	1012.19	24.90	8.80	
24	73	-0.07	-0.31	0.29	-0.14	-0.01	-9.47	259.14	1012.17	24.90	9.03	
24	72	-8.27	-9.41	-0.05	0.38	-0.11	-9.30	262.20	1012.19	24.91	8.84	
24	72	-0.17	-2.46	-0.42	1.14	-0.32	-9.29	262.44	1012.34	24.95	7.54	
24	72	-0.40	-0.45	0.54	1.11	-0.33	-9.34	262.13	1012.23	24.90	8.48	
24	71	0.52	1.81	-3.61	-0.11	-0.01	-9.38	263.26	1012.32	24.95	7.71	
24	71	17.89	-5.03	-0.38	-3.44	5.03	-7.26	262.05	1012.29	24.93	8.03	
24	71	3.28	2.07	-1.07	-0.93	-0.06	-9.49	262.98	1012.13	24.96	9.29	
24	73	-0.81	-0.45	-6.02	-0.93	0.05	-9.36	263.22	1012.33	25.06	7.65	
24	72	-1.47	-0.25	0.71	0.49	-2.06	-9.26	254.70	1012.24	25.01	8.42	
24	72	1.34	1.09	-0.50	-0.16	-1.15	-9.41	252.90	1012.27	25.05	8.19	
24	71	-2.56	-2.41	0.25	-0.52	-0.64	-9.39	257.21	1012.17	25.03	8.98	
24	71	-0.06	0.64	-8.62	-0.80	0.23	-9.42	260.55	1012.17	25.05	9.02	
24	71	1.57	0.60	0.20	-0.58	-0.03	-9.47	259.54	1012.33	25.07	7.69	
24	71	-35.03	-24.20	5.73	0.91	-1.23	-9.16	256.18	1012.24	25.08	8.43	
24	71	3.07	1.69	1.01	-0.17	-0.19	-9.47	255.08	1012.31	25.10	7.83	
24	70	12.22	7.50	-2.89	-0.19	-0.16	-9.51	256.69	1012.32	25.11	7.72	
24	70	0.04	-0.60	0.38	-0.24	-0.09	-9.44	258.67	1012.34	25.11	7.54	
24	70	-0.14	-0.50	0.21	-0.23	-0.07	-9.49	258.41	1012.24	25.10	8.42	
24	70	-0.35	-0.45	0.17	-0.21	-0.07	-9.45	258.35	1012.26	25.11	8.22	
24	70	-0.19	-0.41	0.52	-0.27	-0.08	-9.43	259.17	1012.15	25.07	9.13	
24	70	0.11	-0.29	0.29	-0.26	-0.06	-9.45	259.58	1012.15	25.12	9.20	
24	70	2.07	-0.19	0.85	-0.29	-0.03	-9.29	255.54	1012.25	25.08	8.32	
24	70	-0.07	2.52	-1.56	-0.10	-0.11	-9.42	255.60	1012.14	25.09	9.23	
24	70	0.02	-0.50	0.23	-0.25	-0.05	-9.41	257.29	1012.17	25.09	8.97	
24	70	2.10	-0.40	0.29	-0.27	-0.05	-9.47	257.51	1012.13	25.06	9.37	
24	70	-0.17	-0.51	0.00	-0.25	-0.09	-9.55	257.49	1012.23	25.11	8.47	
24	70	-0.19	-0.39	0.25	-0.26	-0.06	-9.44	257.79	1012.12	25.07	9.44	
24	70	-0.04	-0.32	0.31	-0.25	-0.06	-9.48	257.47	1012.20	25.12	8.78	
24	70	-0.24	-0.42	0.35	-0.27	-0.04	-9.52	257.19	1012.25	25.11	8.36	
24	70	-0.01	-0.55	0.11	-0.25	-0.04	-9.44	257.25	1012.22	25.11	8.61	
24	70	-0.16	-0.39	0.46	-0.25	-0.04	-9.46	257.32	1012.21	25.10	8.64	
24	70	-0.03	-0.51	0.14	-0.25	-0.02	-9.47	257.48	1012.16	25.10	9.09	
24	70	0.08	-0.29	0.39	-0.26	-0.05	-9.44	257.02	1012.10	25.10	9.57	
24	69	-0.20	-0.59	0.28	-0.27	-0.09	-9.43	257.17	1012.19	25.14	8.81	
24	69	-0.06	-0.34	0.34	-0.23	-0.06	-9.45	257.71	1012.16	25.12	9.09	
24	69	-0.05	-0.17	0.42	-0.23	-0.05	-9.47	258.11	1012.17	25.09	9.03	
24	69	-0.08	-0.37	0.20	-0.25	-0.07	-9.47	257.48	1012.26	25.16	8.26	
24	70	-0.23	-0.40	0.38	-0.24	-0.06	-9.45	257.19	1012.21	25.14	8.65	
24	70	-0.11	-0.25	0.31	-0.26	-0.04	-9.49	257.67	1012.21	25.12	8.70	
24	70	-0.26	-0.50	0.19	-0.25	-0.07	-9.47	257.56	1012.27	25.15	8.14	
24	70	-0.19	-0.23	0.46	-0.26	-0.07	-9.44	257.44	1012.22	25.14	8.58	
24	70	-0.25	-0.37	0.32	-0.24	-0.06	-9.47	257.44	1012.16	25.14	9.04	
24	70	-0.09	-0.43	0.30	-0.24	-0.05	-9.47	257.69	1012.15	25.13	9.13	
24	70	0.02	-0.39	0.23	-0.26	-0.05	-9.43	258.10	1012.19	25.16	8.79	
24	70	-0.17	-0.51	0.39	-0.26	-0.08	-9.47	257.52	1012.11	25.17	9.53	
24	70	0.02	-0.59	0.41	-0.24	-0.05	-9.43	257.51	1012.22	25.15	8.59	
24	70	-0.12	-0.38	0.33	-0.26	-0.08	-9.43	257.05	1012.26	25.15	8.28	
24	70	-0.48	-0.28	0.47	-0.25	-0.06	-9.47	257.00	1012.27	25.19	8.14	
24	70	-0.12	-0.52	0.32	-0.25	-0.05	-9.46	257.10	1012.11	25.16	9.45	
24	70	-0.23	-0.53	-0.02	-0.23	-0.05	-9.44	257.68	1012.08	25.15	9.73	
24	70	-0.02	-0.38	0.11	-0.25	-0.05	-9.47	258.46	1012.29	25.21	7.96	
24	70	0.05	-0.46	0.32	-0.28	-0.08	-9.47	257.46	1012.13	25.16	9.30	
24	70	-0.17	-0.34	0.30	-0.27	-0.05	-9.45	257.78	1012.21	25.17	8.63	
24	70	-0.10	-0.34	0.23	-0.25	-0.05	-9.45	257.87	1012.17	25.20	9.01	
24	70	-0.21	-0.29	0.34	-0.26	-0.02	-9.49	258.03	1012.17	25.10	9.02	
24	70	-0.20	-0.31	0.14	-0.28	-0.04	-9.47	257.63	1012.22	25.19	8.54	
24	70	-0.22	-0.28	0.30	-0.29	-0.05	-9.64	257.59	1012.16	25.15	9.10	
24	70	-0.35	-0.28	0.18	-0.23	-0.05	-9.45	257.46	1012.23	25.19	8.52	
24	70	-0.01	-0.50	0.39	-0.26	-0.07	-9.48	257.09	1012.14	25.16	9.27	
24	70	-0.17	-0.70	0.36	-0.27	-0.06	-9.48	257.56	1012.40	25.25	7.09	
24	70	-0.10	-0.23	0.18	-0.24	-0.06	-9.49	257.51	1012.23	25.19	8.54	
24	70	-0.07	-0.38	-0.31	-0.27	-0.06	-9.47	257.49	1012.13	25.18	9.35	
24	70	0.00	-0.30	0.40	-0.28	-0.09	-9.46	257.12	1012.26	25.18	8.27	
23	70	0.04	-0.42	0.18	-0.26	-0.05	-9.44	257.01	1012.26	25.19	8.27	
23	70	-0.29	-0.30	0.10	-0.25	-0.11	-9.44	257.20	1012.26	25.20	8.23	
23	70	-0.26	-0.28	0.11	-0.26	-0.07	-9.45	257.41	1012.20	25.19	8.78	
23	70	-0.03	-0.51	0.38	-0.26	-0.07	-9.53	257.12	1012.18	25.21	8.93	
23	70	-0.45	-0.51	0.31	-0.28	-0.03	-9.45	257.45	1012.28	25.21	8.06	
23	71	-0.31	-0.33	0.55	-0.26	-0.05	-9.48	257.83	1012.24	25.20	8.43	
23	71	-0.31	-0.26	0.36	-0.25	-0.09	-9.47	257.50	1012.19	25.20	8.80	
23	71	-0.10	-0.32	0.37	-0.22	-0.07	-9.45	257.92	1012.22	25.21	8.57	
23	71	-0.16	-0.47	-0.05	-0.25	-0.07	-9.47	257.70	1012.16	25.21	9.08	
23	71	-0.18	-0.63	0.24	-0.24	-0.07	-9.39	257.60	1012.19	25.19	8.85	
23	71	-0.31	-0.61	0.18	-0.25	-0.06	-9.45	257.47	1012.24	25.19	8.43	
23	71	-0.30	-0.16	0.40	-0.29	-0.01	-9.50	257.21	1012.29	25.22	7.96	
23	71	-0.25	-0.57	0.33	-0.25	-0.04	-9.47	257.47	1012.25	25.23	8.30	
23	71	-0.11	-0.26	0.46	-0.25	-0.05	-9.45	257.49	1012.15	25.20	9.17	
23	71	-0.22	-0.39	-0.04	-0.26	-0.08	-9.42	257.59	1012.09	25.22	9.67	
23	71	-0.12	-0.14	0.24	-0.27	-0.06	-9.46	257.64	1012.09	25.24	9.68	
23	71	-0.16	-0.45	0.09	-0.22	-0.04	-9.41	257.18	1012.12	25.20	9.43	
23	71	-0.21	-0.17	0.46	-0.24	-0.05	-9.45	256.99	1012.18	25.21	8.87	
23	71	-0.06	-0.50	0.05	-0.25	-0.05	-9.44	257.04	1012.20	25.21	8.76	
23	71	-0.31	-0.56	0.38	-0.32	-0.04	-9.47	257.18	1012.10	25.21	9.60	
23	71	-0.05	-0.60	0.30	-0.25	-0.09	-9.47	257.38	1012.26	25.22	8.27	
23	71	-0.17	-0.36	0.13	-0.28	-0.07	-9.52	257.60	1012.17	25.22	8.98	
23	71	-0.35	-0.31	-0.02	-0.24	-0.04	-9.44	257.41	1012.33	25.25	7.70	
23	71	-0.07	-0.36	0.10	-0.28	-0.06	-9.45	257.14	1012.14	25.23	9.29	
23	71	-0.25	-0.60	0.49	-0.25	-0.03	-9.45	256.96	1012.14	25.19	9.27	
23	71	-0.11	-0.44	0.25	-0.27	-0.06	-9.46	257.65	1012.23	25.17	8.52	
23	71	0.11	-0.28	0.45	-0.23	-0.09	-9.43	257.20	1012.26	25.25	8.26	
23	71	-0.05	-0.52	0.17	-0.24	-0.05	-9.46	257.30	1012.14	25.22	9.26	
23	71	-0.06	-0.40	0.51	-0.24	-0.08	-9.45	257.05	1012.16	25.23	9.11	
23	71	-0.29	-0.43	0.35	-0.25	-0.05	-9.46	257.78	1012.09	25.21	9.62	
23	71	-0.24	-0.54	0.47	-0.26	-0.06	-9.44	256.93	1012.19	25.22	8.86	
23	71	0.02	-0.35	0.20	-0.28	-0.07	-9.45	257.71	1012.18	25.20	8.93	
23	71	-0.16	-0.63	0.04	-0.26	-0.04	-9.43	257.38	1012.18	25.25	8.87	
23	71	-0.30	-0.46	0.10	-0.26	-0.05	-9.37	257.21	1012.28	25.24	8.06	
23	71	-0.32	-0.39	0.38	-0.27	-0.02	-9.49	257.73	1012.24	25.26	8.38	
23	71	-0.41	-0.49	0.28	-0.28	-0.05	-9.47	257.30	1012.13	25.20	9.37	
23	71	-0.15	-0.41	0.41	-0.26	-0.06	-9.48	257.12	1012.17	25.23	8.99	
23	71	0.06	-0.49	0.13	-0.24	-0.06	-9.46	257.12	1012.18	25.23	8.91	
23	71	-0.25	-0.46	0.36	-0.27	-0.06	-9.45	257.42	1012.19	25.24	8.84	
23	71	-0.50	-0.58	0.23	-0.23	-0.07	-9.47	256.85	1012.19	25.26	8.86	
23	71	-0.12	-0.25	-0.06	-0.27	-0.05	-9.45	257.12	1012.17	25.26	9.03	
23	71	-0.31	-0.40	0.11	-0.27	-0.05	-9.45	257.16	1012.19	25.26	8.81	
23	71	-0.11	-0.27	0.26	-0.23	-0.06	-9.44	256.91	1012.21	25.23	8.63	
23	71	-0.22	-0.47	0.13	-0.26	-0.07	-9.41	257.19	1012.13	25.21	9.31	
23	71	-0.28	-0.27	0.56	-0.25	-0.08	-9.46	257.26	1012.20	25.25	8.78	
23	71	-0.19	-0.42	0.17	-0.25	-0.06	-9.46	257.02	1012.15	25.23	9.14	
23	71	-0.14	-0.48	0.04	-0.25	-0.05	-9.41	257.21	1012.22	25.24	8.61	
23	71	-0.52	-0.32	0.34	-0.26	-0.06	-9.47	257.14	1012.09	25.21	9.69	
23	71	-0.20	-0.28	0.21	-0.25	-0.04	-9.48	257.40	1012.22	25.23	8.58	
23	71	-0.41	-0.56	0.36	-0.26	-0.05	-9.47	257.47	1012.18	25.24	8.88	
23	71	-0.04	-0.43	0.19	-0.25	-0.06	-9.48	256.40	1012.22	25.26	8.59	
23	71	-0.06	-0.09	0.06	-0.25	-0.04	-9.43	257.47	1012.22	25.25	8.57	
23	71	0.08	-0.60	0.39	-0.25	-0.06	-9.44	257.00	1012.18	25.24	8.89	
23	71	-0.16	-0.40	0.25	-0.25	-0.07	-9.47	256.93	1012.31	25.28	7.81	
23	71	-0.25	-0.32	0.33	-0.25	-0.06	-9.44	256.47	1012.13	25.24	9.36	
23	71	-0.08	-0.49	0.08	-0.26	-0.09	-9.47	257.47	1012.23	25.26	8.49	
23	71	-0.16	-0.69	0.29	-0.24	-0.08	-9.42	256.92	1012.20	25.27	8.74	
23	71	-0.24	-0.42	0.33	-0.25	-0.02	-9.47	256.92	1012.25	25.28	8.33	
23	71	-0.16	-0.31	0.25	-0.27	-0.07	-9.50	257.11	1012.21	25.26	8.67	
23	71	-0.16	-0.33	0.27	-0.26	-0.06	-9.47	257.26	1012.21	25.27	8.63	
23	71	-0.21	-0.21	0.13	-0.25	-0.04	-9.47	257.07	1012.35	25.29	7.50	
23	71	-0.04	-0.43	0.35	-0.28	-0.03	-9.55	256.52	1012.30	25.28	7.95	
23	71	-0.11	-0.26	0.46	-0.23	-0.07	-9.49	256.90	1012.17	25.24	8.97	
23	71	-0.13	-0.27	0.33	-0.28	-0.07	-9.49	256.98	1012.16	25.24	9.09	
23	71	-0.25	-0.36	0.52	-0.28	-0.07	-9.47	256.94	1012.23	25.24	8.50	
23	71	-0.02	-0.44	-0.28	-0.29	-0.05	-9.47	257.10	1012.19	25.25	8.86	
23	71	-0.25	-0.51	0.31	-0.32	-0.05	-9.47	257.11	1012.27	25.27	8.16	
23	71	0.08	-0.21	0.46	-0.26	-0.02	-9.46	257.26	1012.22	25.24	8.59	
23	71	-0.09	-0.17	0.31	-0.26	-0.08	-9.47	257.57	1012.30	25.28	7.92	
23	71	0.14	-0.37	0.36	-0.25	-0.07	-9.47	256.99	1012.21	25.26	8.67	
23	71	-0.09	-0.40	0.32	-0.23	-0.05	-9.46	257.42	1012.23	25.27	8.46	
23	71	-0.15	-0.50	-0.03	-0.24	-0.06	-9.47	257.35	1012.23	25.26	8.46	
23	71	-0.25	-0.38	0.17	-0.28	-0.06	-9.45	257.32	1012.27	25.26	8.16	
23	71	-0.26	-0.25	-0.04	-0.28	-0.03	-9.49	257.19	1012.15	25.24	9.17	
23	71	-0.11	-0.44	0.41	-0.28	-0.07	-9.46	257.52	1012.18	25.24	8.93	
23	71	-0.01	-0.54	0.31	-0.25	-0.06	-9.45	257.48	1012.18	25.27	8.90	
23	71	-0.17	-0.58	0.25	-0.24	-0.01	-9.47	257.46	1012.25	25.27	8.37	
23	71	-0.19	-0.57	0.24	-0.26	-0.02	-9.47	257.91	1012.28	25.28	8.08	
23	71	0.00	-0.26	0.17	-0.26	-0.05	-9.48	256.78	1012.26	25.27	8.28	
23	71	-0.11	-0.31	0.39	-0.24	-0.05	-9.45	257.00	1012.30	25.29	7.88	
23	71	0.01	-0.32	0.25	-0.26	-0.06	-9.47	256.93	1012.41	25.28	6.96	
23	71	-0.17	-0.38	0.04	-0.27	-0.06	-9.47	257.40	1012.30	25.26	7.93	
23	71	-0.18	-0.39	0.04	-0.25	-0.06	-9.49	257.18	1012.30	25.28	7.87	
23	71	-0.15	-0.38	0.14	-0.26	-0.07	-9.47	257.59	1012.16	25.25	9.11	
23	71	-0.17	-0.62	0.57	-0.28	-0.05	-9.47	257.78	1012.20	25.27	8.71	
23	71	-0.11	-0.37	0.26	-0.24	-0.07	-9.46	257.41	1012.28	25.29	8.10	
23	71	-0.18	-0.37	0.08	-0.25	-0.09	-9.42	257.50	1012.21	25.26	8.70	
23	71	-0.11	-0.30	0.14	-0.27	-0.05	-9.45	256.88	1012.20	25.27	8.77	
23	71	-0.25	-0.34	0.42	-0.26	-0.06	-9.45	257.45	1012.18	25.26	8.89	
23	71	-0.17	-0.33	0.17	-0.25	-0.09	-9.42	257.38	1012.27	25.27	8.15	
23	71	-0.20	-0.52	0.30	-0.25	-0.06	-9.48	256.86	1012.33	25.31	7.70	
23	71	-0.38	-0.41	0.06	-0.26	-0.06	-9.47	257.46	1012.22	25.26	8.61	
23	71	-0.28	-0.41	0.22	-0.26	-0.05	-9.45	257.22	1012.18	25.25	8.95	
23	71	-0.19	-0.38	0.07	-0.27	-0.04	-9.45	258.20	1012.25	25.27	8.34	
23	71	-0.23	-0.60	-0.04	-0.26	-0.10	-9.43	256.97	1012.22	25.27	8.55	
23	71	-0.04	-0.45	0.30	-0.26	-0.07	-9.45	257.25	1012.30	25.29	7.91	
23	71	-0.10	-0.31	0.25	-0.25	-0.08	-9.47	257.60	1012.25	25.28	8.35	
23	71	-0.25	-0.20	0.05	-0.25	-0.11	-9.42	256.97	1012.31	25.30	7.87	
23	71	-0.15	-0.35	0.34	-0.26	-0.05	-9.47	257.56	1012.33	25.26	7.68	
23	72	-0.02	-0.49	0.26	-0.27	-0.07	-9.45	257.83	1012.13	25.25	9.29	
23	72	-0.14	-0.29	0.46	-0.25	-0.09	-9.45	257.36	1012.23	25.29	8.47	
23	72	-0.01	-0.40	0.22	-0.26	-0.07	-9.44	257.07	1012.18	25.27	8.91	
23	72	-0.18	-0.35	0.12	-0.27	-0.07	-9.42	257.18	1012.24	25.28	8.41	
23	72	-0.30	-0.40	0.06	-0.24	-0.03	-9.44	257.39	1012.32	25.29	7.73	
23	72	-0.17	-0.17	0.34	-0.26	-0.07	-9.43	257.62	1012.29	25.26	8.00	
23	72	-0.04	-0.38	0.28	-0.26	-0.03	-9.47	257.39	1012.25	25.27	8.33	
23	72	-0.25	-0.50	0.40	-0.23	-0.03	-9.47	256.62	1012.37	25.30	7.34	
23	72	-0.09	-0.60	0.32	-0.25	0.22	-9.55	257.88	1012.20	25.26	8.76	
23	72	-0.21	-0.40	0.17	-0.30	-0.08	-9.49	256.38	1012.27	25.27	8.20	
23	72	-0.11	-0.38	0.24	-0.24	-0.07	-9.48	257.67	1012.13	25.25	9.31	
23	72	-0.19	-0.40	0.17	-0.26	-0.08	-9.43	257.68	1012.16	25.26	9.06	
23	72	-0.18	-0.32	0.12	-0.26	-0.05	-9.47	258.03	1012.27	25.25	8.19	
23	72	-0.04	-0.41	0.33	-0.27	-0.05	-9.49	257.36	1012.16	25.21	9.08	
23	72	0.02	0.65	1.04	-0.03	-0.38	-9.46	257.19	1012.30	25.28	7.90	
23	72	-0.19	-0.21	0.11	-0.32	-0.05	-9.47	257.15	1012.21	25.27	8.69	
23	72	-0.10	-0.33	0.26	-0.27	-0.07	-9.43	257.30	1012.32	25.30	7.72	
23	72	-0.21	-0.38	0.33	-0.28	-0.05	-9.47	257.54	1012.23	25.29	8.48	
23	72	-0.13	-0.38	0.04	-0.28	-0.03	-9.47	257.35	1012.28	25.27	8.09	
23	72	-0.20	-0.31	0.06	-0.27	-0.05	-9.44	257.37	1012.23	25.27	8.51	
23	72	-0.11	-0.37	-0.01	-0.29	-0.05	-9.45	257.17	1012.23	25.25	8.49	
23	72	-0.16	-0.32	0.25	-0.29	-0.04	-9.43	257.75	1012.34	25.26	7.61	
23	72	-0.11	-0.27	0.22	-0.27	-0.02	-9.46	257.82	1012.23	25.23	8.48	
23	72	-0.20	-0.25	0.27	-0.28	-0.04	-9.49	257.43	1012.32	25.28	7.76	
23	72	-0.23	-0.22	0.23	-0.26	-0.06	-9.45	256.17	1012.33	25.31	7.64	
23	72	-0.27	-0.52	0.59	-0.24	-0.05	-9.44	256.61	1012.25	25.27	8.32	
23	72	-0.58	-0.36	0.21	-0.16	-0.01	-9.40	256.02	1012.18	25.26	8.89	
23	72	-0.07	-0.42	-0.17	-0.25	-0.05	-9.53	255.81	1012.30	25.32	7.91	
23	72	-0.41	-0.42	0.15	-0.24	-0.05	-9.47	255.99	1012.34	25.29	7.57	
23	72	-0.23	-0.38	0.15	-0.28	-0.05	-9.47	255.72	1012.25	25.25	8.36	
23	72	-0.28	-0.33	-0.31	-0.28	-0.02	-9.46	254.57	1012.34	25.34	7.62	
23	72	-0.04	-0.41	0.36	-0.28	-0.05	-9.45	254.82	1012.22	25.31	8.55	
23	72	-0.25	-0.29	0.35	-0.33	-0.04	-9.49	254.84	1012.31	25.33	7.81	
23	72	-0.10	-0.31	0.44	-0.32	-0.05	-9.47	254.77	1012.26	25.31	8.25	
23	72	-0.16	-0.17	0.31	-0.32	-0.05	-9.39	255.23	1012.31	25.33	7.84	
23	72	-0.46	-0.28	0.21	-0.29	-0.04	-9.48	255.18	1012.26	25.31	8.27	
23	72	-0.09	-0.48	0.24	-0.32	-0.05	-9.45	255.53	1012.19	25.28	8.84	
23	72	-0.02	-0.15	0.15	-0.26	-0.06	-9.45	254.94	1012.30	25.32	7.92	
23	72	-0.07	-0.31	0.24	-0.32	-0.05	-9.43	254.82	1012.33	25.33	7.67	
23	72	-0.22	-0.41	0.31	-0.29	-0.05	-9.46	255.07	1012.25	25.36	8.35	
23	72	-0.04	-0.32	0.62	-0.28	-0.04	-9.45	255.08	1012.37	25.35	7.32	
23	72	-0.08	-0.32	0.22	-0.27	-0.06	-9.44	255.13	1012.29	25.31	8.03	
23	72	-0.17	-0.39	0.29	-0.30	-0.04	-9.37	254.83	1012.29	25.33	7.97	
23	72	-0.20	-0.47	0.20	-0.32	-0.06	-9.49	255.12	1012.22	25.31	8.55	
23	72	-0.22	-0.21	0.37	-0.32	-0.09	-9.45	255.10	1012.25	25.32	8.31	
23	72	-0.22	-0.25	0.31	-0.29	-0.07	-9.47	255.22	1012.32	25.33	7.77	
23	72	-0.17	-0.26	0.43	-0.28	-0.03	-9.48	255.12	1012.29	25.37	8.04	
23	72	-0.21	-0.28	0.19	-0.27	-0.09	-9.42	254.90	1012.29	25.36	7.96	
23	72	-0.23	-0.38	0.35	-0.27	-0.06	-9.47	254.50	1012.28	25.36	8.10	
23	72	-0.11	-0.31	0.48	-0.28	-0.06	-9.43	254.91	1012.35	25.35	7.46	
23	72	-0.35	-0.46	0.31	-0.27	-0.05	-9.46	255.39	1012.48	25.40	6.43	
23	72	-0.28	-0.51	0.12	-0.28	-0.04	-9.42	254.99	1012.50	25.42	6.25	
23	72	-0.22	-0.46	0.24	-0.29	-0.02	-9.47	255.69	1012.36	25.37	7.44	
23	72	-0.16	-0.33	0.19	-0.28	-0.03	-9.47	254.54	1012.34	25.38	7.56	
23	72	-0.22	-0.40	0.16	-0.28	-0.05	-9.46	255.31	1012.30	25.34	7.93	
23	72	-0.16	-0.25	0.16	-0.32	-0.05	-9.48	255.05	1012.32	25.36	7.76	
23	72	-0.10	-0.25	0.10	-0.32	-0.07	-9.44	254.92	1012.35	25.37	7.48	
23	72	-0.13	-0.31	0.38	-0.29	-0.02	-9.52	255.70	1012.28	25.34	8.10	
23	71	-0.03	-0.48	0.22	-0.29	-0.02	-9.47	255.06	1012.45	25.43	6.66	
23	71	-0.31	-0.38	0.49	-0.32	-0.04	-9.47	254.92	1012.22	25.36	8.60	
23	71	-0.31	-0.53	0.22	-0.26	-0.09	-9.44	255.17	1012.33	25.39	7.66	
23	71	-0.25	-0.38	0.16	-0.32	-0.04	-9.47	255.06	1012.25	25.33	8.32	
23	72	0.04	-0.29	0.31	-0.32	-0.07	-9.41	255.41	1012.26	25.31	8.25	
23	72	-0.14	-0.37	0.24	-0.32	-0.05	-9.47	254.90	1012.23	25.29	8.53	
23	72	-0.20	-0.52	0.46	-0.29	-0.06	-9.47	254.41	1012.30	25.30	7.95	
23	72	-0.24	-0.48	0.20	-0.29	-0.13	-9.42	254.51	1012.25	25.34	8.29	
23	72	-0.19	-0.20	0.04	-0.29	-0.06	-9.44	254.49	1012.30	25.31	7.94	
23	72	-0.17	-0.45	-0.04	-0.24	-0.02	-9.38	254.92	1012.37	25.35	7.33	
23	72	-0.21	-0.18	0.17	-0.26	-0.02	-9.47	254.31	1012.23	25.30	8.51	
23	72	0.17	-1.09	0.47	-0.32	-0.06	-9.50	254.35	1012.32	25.35	7.77	
23	72	-0.24	-0.38	0.37	-0.29	-0.01	-9.49	254.18	1012.31	25.34	7.84	
23	72	-0.37	-0.31	0.28	-0.26	-0.05	-9.47	254.71	1012.21	25.36	8.64	
23	72	-0.20	-0.26	-0.02	-0.28	-0.02	-9.48	254.83	1012.27	25.35	8.19	
23	72	-0.21	-0.34	0.11	-0.25	-0.05	-9.47	254.00	1012.26	25.33	8.27	
23	72	-0.35	-0.16	0.05	-0.28	-0.04	-9.45	254.52	1012.23	25.35	8.52	
23	72	-0.28	-0.25	0.18	-0.32	-0.04	-9.44	254.22	1012.12	25.29	9.42	
23	72	-0.18	-0.39	0.51	-0.27	-0.04	-9.45	254.89	1012.20	25.34	8.71	
23	72	-0.24	-0.28	0.47	-0.28	-0.01	-9.45	254.71	1012.26	25.36	8.20	
23	72	-0.16	-0.42	0.31	-0.31	-0.02	-9.44	254.32	1012.31	25.39	7.82	
23	72	-0.25	-0.28	0.19	-0.27	-0.06	-9.47	254.40	1012.31	25.39	7.79	
23	72	0.08	-0.28	0.41	-0.24	-0.02	-9.36	254.33	1012.19	25.40	8.81	
23	72	0.12	-0.36	0.36	-0.29	-0.04	-9.49	254.50	1012.22	25.44	8.58	
23	72	-0.03	-0.34	0.61	-0.32	-0.03	-9.43	254.53	1012.35	25.39	7.46	
23	72	-0.04	-0.44	0.24	-0.28	-0.03	-9.34	254.42	1012.30	25.36	7.92	
23	72	-0.12	-0.27	0.02	-0.29	-0.04	-9.47	255.08	1012.44	25.44	6.72	
23	72	-1.29	-0.88	0.51	-0.32	-0.08	-9.57	254.41	1012.34	25.40	7.56	
23	72	-0.06	-0.51	0.23	-0.28	-0.05	-9.43	254.48	1012.35	25.43	7.45	
23	72	-0.19	-0.57	0.07	-0.32	-0.04	-9.51	254.93	1012.23	25.39	8.48	
23	72	0.28	-0.32	0.59	-0.44	-0.06	-9.53	254.23	1012.32	25.41	7.76	
23	72	-0.46	-0.33	0.01	-0.29	-0.04	-9.45	255.22	1012.33	25.42	7.67	
23	72	-0.37	-0.28	0.18	-0.27	-0.04	-9.47	254.78	1012.34	25.40	7.54	
23	72	-0.16	-0.33	0.25	-0.28	-0.01	-9.46	254.58	1012.35	25.42	7.47	
23	72	-0.33	-0.42	0.40	-0.32	-0.03	-9.51	254.71	1012.42	25.44	6.94	
23	72	-0.21	-0.26	0.27	-0.29	-0.08	-9.44	255.08	1012.36	25.44	7.42	
23	72	-0.19	-0.46	0.30	-0.28	-0.05	-9.46	254.94	1012.47	25.48	6.47	
23	72	-0.02	-0.31	-0.02	-0.29	-0.05	-9.44	254.61	1012.38	25.46	7.24	
23	72	-0.20	-0.31	0.32	-0.29	-0.02	-9.44	254.80	1012.33	25.42	7.67	
23	72	-0.28	-0.37	0.12	-0.30	-0.03	-9.46	254.60	1012.48	25.48	6.43	
23	72	-0.21	-0.57	0.37	-0.29	-0.06	-9.40	254.80	1012.35	25.43	7.51	
23	72	-0.41	-0.40	0.09	-0.28	-0.02	-9.47	254.95	1012.38	25.51	7.23	
23	72	0.03	-0.39	0.42	-0.30	-0.04	-9.47	255.10	1012.25	25.45	8.29	
23	72	-0.04	-0.47	0.25	-0.32	-0.01	-9.50	254.61	1012.38	25.46	7.24	
23	72	-0.27	-0.37	0.54	-0.29	-0.01	-9.45	255.34	1012.38	25.45	7.22	
23	72	-0.20	-0.28	0.44	-0.32	-0.02	-9.47	255.19	1012.48	25.53	6.42	
23	72	-0.11	-0.57	0.45	-0.29	-0.01	-9.47	255.35	1012.37	25.48	7.34	
23	72	-0.03	-0.15	0.46	-0.29	-0.03	-9.43	255.42	1012.27	25.46	8.16	
23	72	-0.51	-0.64	0.58	-0.28	-0.01	-9.46	255.23	1012.33	25.51	7.69	
23	72	0.04	-0.33	0.17	-0.28	-0.05	-9.45	255.39	1012.42	25.51	6.91	
23	72	-0.11	-0.46	0.16	-0.29	-0.04	-9.47	255.38	1012.30	25.48	7.87	
23	72	-0.31	-0.31	0.30	-0.27	-0.04	-9.44	255.62	1012.53	25.54	6.02	
23	72	-0.07	-0.41	0.27	-0.32	-0.04	-9.43	255.38	1012.50	25.52	6.28	
23	72	-0.27	-0.23	0.37	-0.32	-0.05	-9.48	254.47	1012.49	25.54	6.37	
23	72	-0.37	-0.28	0.16	-0.28	-0.04	-9.45	255.30	1012.51	25.54	6.15	
23	72	-0.26	-0.46	0.16	-0.32	-0.04	-9.48	254.99	1012.53	25.55	5.99	
23	72	-0.14	-0.25	-0.19	-0.29	-0.03	-9.46	255.65	1012.43	25.53	6.82	
23	72	-0.12	-0.45	0.16	-0.29	-0.02	-9.46	254.83	1012.31	25.52	7.83	
23	72	-0.26	-0.49	0.43	-0.32	-0.02	-9.40	255.09	1012.31	25.50	7.85	
23	72	-0.17	-0.04	0.31	-0.32	-0.02	-9.46	255.24	1012.36	25.55	7.40	
23	72	-0.35	-0.37	0.26	-0.30	-0.01	-9.46	255.03	1012.41	25.54	6.96	
23	72	-0.15	-0.52	0.09	-0.30	-0.04	-9.51	254.36	1012.50	25.58	6.28	
23	72	-0.19	-0.16	0.40	-0.29	-0.02	-9.44	255.06	1012.49	25.57	6.35	
23	72	-0.54	-0.30	0.69	-0.34	-0.12	-9.51	254.85	1012.48	25.55	6.39	
23	72	-0.12	-0.50	0.37	-0.28	-0.07	-9.44	255.18	1012.42	25.49	6.94	
23	72	-0.25	-0.15	0.17	-0.29	-0.03	-9.43	254.67	1012.48	25.52	6.44	
23	72	-0.07	-0.58	0.26	-0.24	-0.10	-9.39	255.23	1012.49	25.52	6.37	
23	71	-0.31	-0.60	0.05	-0.28	-0.03	-9.47	255.44	1012.45	25.53	6.67	
23	71	-0.17	-0.38	0.25	-0.27	-0.01	-9.46	255.82	1012.36	25.49	7.40	
23	71	-0.21	-0.38	0.46	-0.28	-0.02	-9.43	255.24	1012.47	25.50	6.54	
23	71	-0.32	-0.47	0.57	-0.32	-0.04	-9.48	255.28	1012.48	25.53	6.42	
23	71	-0.26	-0.52	0.15	-0.32	-0.02	-9.45	255.88	1012.58	25.54	5.59	
23	71	-0.04	-0.44	0.11	-0.29	-0.02	-9.43	255.59	1012.52	25.55	6.07	
23	71	0.06	-0.31	0.28	-0.27	-0.05	-9.43	254.74	1012.42	25.54	6.88	
23	71	-0.34	-0.07	0.25	-0.32	-0.04	-9.48	255.04	1012.36	25.55	7.40	
23	71	-0.11	-0.72	0.14	-0.28	-0.05	-9.47	255.48	1012.51	25.55	6.20	
23	71	-0.25	-0.35	0.35	-0.29	-0.05	-9.46	255.58	1012.38	25.54	7.25	
23	71	-0.16	-0.31	0.32	-0.27	-0.09	-9.42	255.34	1012.48	25.55	6.38	
23	71	-0.39	-0.23	0.11	-0.31	-0.06	-9.46	255.39	1012.44	25.56	6.77	
23	71	-0.37	-0.20	0.29	-0.30	-0.05	-9.43	255.49	1012.36	25.55	7.40	
23	71	-0.21	-0.57	0.46	-0.28	-0.06	-9.42	255.32	1012.37	25.54	7.30	
23	71	-0.38	-0.38	0.38	-0.32	-0.05	-9.46	255.40	1012.37	25.55	7.34	
23	71	-0.53	-0.52	0.08	-0.29	-0.01	-9.44	255.31	1012.34	25.52	7.56	
23	71	-0.62	-0.45	0.45	-0.32	-0.07	-9.40	255.01	1012.42	25.55	6.88	
23	71	-0.30	-0.32	0.17	-0.29	-0.02	-9.47	255.34	1012.47	25.57	6.48	
23	71	-0.23	-0.51	0.17	-0.24	-0.07	-9.43	255.43	1012.39	25.52	7.19	
23	71	-0.26	-0.58	0.08	-0.32	-0.01	-9.44	254.83	1012.41	25.56	6.96	
23	71	-0.27	-0.29	0.04	-0.30	-0.05	-9.46	255.49	1012.48	25.57	6.37	
23	71	-0.20	-0.15	0.07	-0.30	-0.05	-9.46	254.84	1012.41	25.54	7.01	
23	71	-0.17	-0.25	0.33	-0.32	-0.02	-9.43	255.74	1012.44	25.56	6.77	
23	71	-0.09	-0.43	0.34	-0.31	-0.06	-9.48	255.46	1012.51	25.60	6.14	
23	71	-0.07	-0.26	0.39	-0.28	-0.07	-9.47	255.08	1012.42	25.58	6.90	
23	71	-0.17	-0.38	0.23	-0.28	-0.05	-9.46	255.14	1012.41	25.55	6.99	
23	71	-0.33	-0.36	-0.01	-0.28	-0.02	-9.46	255.61	1012.46	25.59	6.60	
23	71	-0.10	-0.40	-1.96	-0.29	-0.05	-9.46	255.38	1012.45	25.60	6.68	
23	71	-0.30	-0.35	0.25	-0.27	-0.06	-9.43	255.56	1012.42	25.58	6.95	
23	71	-0.01	-0.56	-0.01	-0.26	-0.03	-9.47	255.57	1012.50	25.61	6.28	
23	71	-0.12	-0.50	-0.03	-0.32	-0.05	-9.50	255.47	1012.59	25.58	5.46	
23	71	-0.29	-0.39	0.40	-0.23	-0.05	-9.44	255.03	1012.55	25.59	5.83	
23	71	-0.49	-0.31	0.20	-0.26	-0.01	-9.46	255.83	1012.72	25.61	4.42	
23	71	-0.43	-0.36	0.34	-0.33	-0.02	-9.53	255.16	1012.67	25.58	4.83	
23	71	-0.17	-0.60	-0.05	-0.29	-0.06	-9.47	254.87	1012.77	25.59	4.03	
23	71	-0.19	-0.37	0.22	-0.32	-0.04	-9.41	255.00	1012.82	25.61	3.60	
23	71	-0.22	-0.39	0.25	-0.32	-0.04	-9.45	255.36	1012.74	25.58	4.21	
23	71	-0.20	-0.37	0.38	-0.31	-0.02	-9.47	255.16	1012.68	25.60	4.74	
23	71	-0.16	-0.28	0.03	-0.30	-0.06	-9.45	255.52	1012.64	25.61	5.10	
23	71	-0.04	-0.61	0.46	-0.29	-0.08	-9.45	255.66	1012.54	25.59	5.92	
23	71	-0.29	-0.39	0.42	-0.33	-0.09	-9.53	255.05	1012.54	25.58	5.92	
23	71	-0.26	-0.30	0.24	-0.32	-0.05	-9.47	255.76	1012.67	25.60	4.80	
23	71	0.06	-0.32	0.29	-0.27	-0.03	-9.44	255.58	1012.77	25.58	3.96	
23	71	-0.21	-0.37	0.28	-0.29	-0.05	-9.40	255.53	1012.64	25.59	5.09	
23	71	-0.30	-0.25	0.32	-0.23	-0.05	-9.45	255.40	1012.77	25.59	4.00	
23	71	-0.20	-0.51	0.15	-0.29	-0.02	-9.46	255.39	1012.65	25.59	4.97	
23	71	0.08	-0.20	0.26	-0.32	-0.08	-9.43	255.28	1012.52	25.59	6.05	
23	71	-0.17	-0.25	0.35	-0.26	-0.02	-9.45	255.62	1012.47	25.60	6.49	
23	71	-0.25	-0.34	0.25	-0.27	-0.06	-9.46	255.00	1012.53	25.61	5.97	
23	71	-0.25	-0.15	0.30	-0.28	-0.07	-9.45	255.87	1012.44	25.60	6.77	
23	71	0.07	-0.32	0.02	-0.32	-0.01	-9.44	255.32	1012.44	25.59	6.77	
23	71	-0.25	-0.26	0.42	-0.29	-0.04	-9.43	255.12	1012.40	25.58	7.10	
23	71	-0.12	-0.32	0.19	-0.32	-0.06	-9.48	255.82	1012.47	25.62	6.46	
23	71	-0.27	-0.35	0.04	-0.29	-0.02	-9.47	254.99	1012.44	25.58	6.76	
23	71	0.03	-0.30	0.38	-0.29	-0.03	-9.45	255.44	1012.46	25.62	6.60	
23	71	-0.25	-0.41	0.11	-0.32	-0.05	-9.47	255.49	1012.27	25.55	8.12	
23	71	-0.23	-0.27	0.28	-0.29	-0.05	-9.44	255.99	1012.41	25.58	6.99	
23	71	-0.04	-0.52	0.61	-0.32	-0.05	-9.45	255.34	1012.32	25.55	7.71	
23	71	-0.31	-0.33	0.47	-0.28	-0.02	-9.45	255.78	1012.44	25.60	6.75	
23	71	-0.29	-0.27	0.39	-0.32	-0.07	-9.48	256.16	1012.37	25.59	7.32	
23	71	-0.28	-0.51	0.46	-0.32	-0.05	-9.47	255.62	1012.37	25.59	7.31	
23	71	-0.33	-0.55	0.26	-0.32	-0.03	-9.52	256.06	1012.39	25.63	7.19	
23	71	-0.25	-0.25	0.11	-0.32	-0.03	-9.44	255.41	1012.40	25.60	7.11	
23	71	-0.08	-0.28	-0.13	-0.26	-0.02	-9.45	255.31	1012.45	25.63	6.68	
23	71	-0.26	-0.39	0.08	-0.32	-0.02	-9.44	255.52	1012.48	25.62	6.44	
23	71	-0.24	-0.41	0.01	-0.29	-0.04	-9.47	255.60	1012.38	25.61	7.21	
23	71	-0.16	-0.55	0.17	-0.31	-0.04	-9.46	255.33	1012.46	25.63	6.59	
23	71	-0.32	-0.57	0.49	-0.28	-0.04	-9.43	255.20	1012.35	25.59	7.51	
23	71	-0.07	-0.51	0.45	-0.30	-0.03	-9.46	255.78	1012.49	25.61	6.33	
23	71	-0.02	-0.29	0.49	-0.32	-0.03	-9.45	255.63	1012.33	25.61	7.67	
23	71	-0.24	-0.26	0.16	-0.26	-0.03	-9.47	255.61	1012.45	25.59	6.66	
23	71	-0.30	-0.41	0.24	-0.42	-0.04	-9.45	255.53	1012.37	25.63	7.29	
23	71	-0.01	-0.39	0.13	-0.32	-0.06	-9.44	255.59	1012.42	25.61	6.94	
23	71	-0.10	-0.51	0.16	-0.29	-0.06	-9.44	255.40	1012.42	25.60	6.91	
23	71	-0.15	-0.38	0.29	-0.25	-0.02	-9.46	255.22	1012.44	25.61	6.71	
23	71	-0.11	-0.26	0.17	-0.28	-0.04	-9.45	255.67	1012.58	25.65	5.54	
23	71	-0.04	-0.42	0.27	-0.28	-0.05	-9.44	255.37	1012.52	25.60	6.06	
23	71	-0.32	-0.29	0.24	-0.29	-0.02	-9.42	255.25	1012.44	25.61	6.75	
23	71	-0.25	-0.42	0.25	-0.30	-0.05	-9.45	255.12	1012.48	25.59	6.44	
23	71	-0.11	-0.27	0.18	-0.32	-0.03	-9.48	255.51	1012.41	25.64	6.96	
23	71	-0.11	-0.36	-0.10	-0.29	-0.07	-9.46	255.74	1012.48	25.61	6.42	
23	71	-0.33	-0.34	0.26	-0.40	-0.09	-9.43	255.70	1012.46	25.61	6.57	
23	71	-0.29	-0.52	0.40	-0.28	-0.02	-9.46	255.10	1012.46	25.61	6.60	
23	71	-0.11	-0.46	0.39	-0.29	-0.03	-9.39	255.45	1012.44	25.60	6.71	
23	71	-0.07	-0.46	0.40	-0.32	-0.04	-9.47	255.25	1012.40	25.60	7.06	
23	71	-0.12	-0.35	0.23	-0.32	-0.04	-9.46	255.28	1012.32	25.60	7.77	
23	71	-0.16	-0.40	0.44	-0.29	-0.05	-9.45	255.26	1012.44	25.61	6.79	
23	71	-0.26	-0.58	0.08	-0.28	-0.03	-9.45	254.97	1012.36	25.56	7.39	
23	71	-0.17	-0.23	0.20	-0.32	-0.03	-9.48	255.39	1012.32	25.61	7.76	
23	71	-0.26	-0.40	-0.04	-0.28	-0.05	-9.52	255.88	1012.41	25.61	7.04	
23	71	-0.21	-0.47	0.11	-0.28	-0.01	-9.48	255.66	1012.37	25.59	7.34	
23	71	-0.26	-0.38	0.44	-0.32	-0.05	-9.47	254.93	1012.30	25.55	7.90	
23	71	-0.31	-0.55	0.29	-0.27	-0.03	-9.45	255.46	1012.41	25.61	6.99	
23	71	-0.25	-0.36	0.22	-0.30	-0.03	-9.44	255.57	1012.30	25.59	7.87	
23	71	-0.18	-0.36	0.22	-0.28	-0.03	-9.44	255.44	1012.34	25.62	7.59	
23	71	-0.20	-0.32	0.11	-0.30	-0.03	-9.43	255.44	1012.39	25.59	7.20	
23	71	-0.23	-0.37	0.26	-0.32	-0.02	-9.54	255.25	1012.31	25.57	7.81	
23	71	-0.25	-0.42	0.23	-0.27	-0.02	-9.44	255.25	1012.44	25.57	6.71	
23	71	-0.26	-0.34	0.20	-0.27	-0.02	-9.43	255.16	1012.33	25.59	7.70	
23	71	-0.26	-0.55	0.06	-0.30	-0.04	-9.46	255.47	1012.48	25.61	6.42	
23	71	-0.13	-0.36	0.17	-0.31	-0.05	-9.47	255.48	1012.31	25.58	7.83	
23	71	0.08	-0.13	0.33	-0.32	-0.06	-9.46	255.36	1012.28	25.59	8.06	
23	71	0.04	-0.47	0.19	-0.32	-0.04	-9.47	255.56	1012.31	25.58	7.80	
23	71	-0.24	-0.44	0.16	-0.30	-0.06	-9.43	255.75	1012.38	25.60	7.25	
23	71	-0.07	-0.52	0.43	-0.32	-0.05	-9.46	255.62	1012.36	25.61	7.44	
23	71	-0.17	-0.33	0.21	-0.28	-0.05	-9.46	255.35	1012.46	25.59	6.61	
23	71	-0.36	-0.21	0.31	-0.28	-0.07	-9.45	255.41	1012.35	25.60	7.51	
23	71	-0.36	-0.25	0.17	-0.33	-0.03	-9.45	255.27	1012.31	25.58	7.81	
23	71	-0.18	-0.56	0.04	-0.23	-0.06	-9.53	255.11	1012.45	25.61	6.69	
23	71	-0.08	-0.32	0.27	-0.29	-0.02	-9.48	255.47	1012.49	25.62	6.35	
23	71	-0.24	-0.25	0.17	-0.29	-0.02	-9.47	254.97	1012.37	25.59	7.30	
23	71	-0.14	-0.37	0.27	-0.32	-0.01	-9.50	255.47	1012.43	25.60	6.84	
23	71	-0.29	-0.40	0.23	-0.25	-0.05	-9.47	255.50	1012.50	25.60	6.27	
23	71	-0.22	-0.24	0.26	-0.32	-0.05	-9.45	255.69	1012.41	25.62	7.02	
23	71	-0.17	-0.31	0.20	-0.32	-0.03	-9.45	255.43	1012.48	25.61	6.40	
23	71	-0.17	-0.34	0.08	-0.32	-0.05	-9.47	255.47	1012.41	25.61	7.03	
23	71	-0.26	-0.55	0.61	-0.30	-0.04	-9.46	255.98	1012.44	25.61	6.78	
23	71	-0.23	-0.50	0.25	-0.29	-0.03	-9.45	255.40	1012.31	25.56	7.85	
23	71	-0.21	-0.24	0.08	-0.30	-0.03	-9.43	254.95	1012.34	25.60	7.58	
23	71	-0.37	-0.42	0.29	-0.24	-0.08	-9.45	255.32	1012.54	25.64	5.91	
23	71	-0.18	-0.52	0.34	-0.32	-0.05	-9.45	255.27	1012.26	25.56	8.29	
23	71	0.02	-0.38	0.51	-0.32	-0.01	-9.51	255.83	1012.48	25.62	6.46	
23	71	-0.28	-0.19	0.18	-0.27	-0.01	-9.46	255.97	1012.40	25.59	7.07	
23	71	-0.18	-0.34	0.35	-0.28	-0.05	-9.48	255.67	1012.24	25.56	8.38	
23	71	-0.17	-0.38	0.12	-0.26	-0.05	-9.50	255.57	1012.47	25.63	6.49	
23	71	-0.35	-0.38	0.24	-0.29	-0.03	-9.46	255.55	1012.38	25.61	7.23	
23	71	-0.07	-0.52	0.08	-0.32	-0.01	-9.51	255.12	1012.36	25.61	7.41	
23	71	-0.34	-0.29	0.30	-0.28	-0.04	-9.42	255.24	1012.42	25.58	6.93	
23	71	-0.17	-0.42	0.41	-0.28	-0.03	-9.43	255.96	1012.31	25.58	7.82	
23	71	-0.11	-0.42	0.28	-0.29	-0.04	-9.47	255.32	1012.35	25.60	7.53	
23	71	-0.16	-0.62	0.35	-0.29	-0.05	-9.44	255.76	1012.30	25.59	7.91	
23	71	-0.22	-0.38	0.27	-0.29	-0.04	-9.49	255.08	1012.42	25.61	6.89	
23	71	-0.26	-0.33	0.31	-0.28	-0.03	-9.47	255.88	1012.53	25.62	6.01	
23	71	-0.12	-0.36	0.35	-0.27	-0.02	-9.47	255.50	1012.46	25.61	6.55	
23	71	-0.25	-0.45	0.12	-0.32	-0.06	-9.47	255.42	1012.37	25.61	7.29	
23	71	-0.12	-0.23	0.25	-0.32	-0.03	-9.47	255.76	1012.48	25.59	6.43	
23	71	-0.19	-0.52	0.24	-0.28	-0.02	-9.47	255.64	1012.41	25.60	7.03	
23	71	0.00	-0.37	-0.33	-0.32	-0.05	-9.44	255.69	1012.33	25.61	7.63	
23	71	-0.37	-0.54	0.25	-0.32	-0.04	-9.45	255.35	1012.47	25.64	6.46	
23	71	0.01	-0.70	0.19	-0.28	-0.03	-9.41	255.42	1012.38	25.60	7.28	
23	71	-0.36	-0.46	0.31	-0.29	-0.05	-9.49	255.98	1012.54	25.63	5.95	
23	71	-0.14	-0.25	0.19	-0.29	-0.03	-9.44	255.49	1012.42	25.61	6.88	
23	71	-0.08	-0.40	0.18	-0.28	-0.04	-9.44	255.32	1012.50	25.63	6.26	
23	71	-0.02	-0.45	0.25	-0.28	-0.05	-9.44	255.73	1012.47	25.60	6.46	
23	71	-0.11	-0.17	0.13	-0.30	-0.02	-9.42	255.60	1012.48	25.63	6.41	
23	71	-0.31	-0.58	0.13	-0.11	-0.01	-9.44	255.10	981.92	25.61	264.09	
23	71	-0.25	-0.23	0.39	-0.29	-0.04	-9.45	255.13	918.24	25.60	822.69	
23	71	-0.04	-0.30	0.13	-0.34	-0.09	-9.30	255.53	864.95	25.57	1314.86	
23	70	-0.51	-0.37	0.17	-0.17	0.03	-9.45	255.16	815.37	25.55	1795.30	
23	70	0.03	-0.29	0.39	-0.26	-0.01	-9.52	255.45	768.94	25.56	2267.05	
23	69	0.17	-0.49	0.17	-0.34	-0.03	-9.47	255.01	725.46	25.48	2730.35	
23	68	-0.31	-0.45	0.41	-0.33	-0.06	-9.43	254.92	686.87	25.49	3160.82	
23	68	-0.42	-0.47	0.10	-0.35	-0.05	-9.48	254.93	648.88	25.48	3604.09	
23	67	-0.09	-0.47	0.05	-0.33	-0.01	-9.36	255.70	613.61	25.43	4034.83	
23	66	-0.25	-0.30	0.18	-0.36	-0.05	-9.35	255.28	580.58	25.40	4456.77	
23	66	-0.20	-0.17	0.30	-0.43	-0.11	-9.40	254.93	549.77	25.36	4868.30	
23	66	-0.33	-0.24	0.50	-0.23	-0.14	-9.36	255.01	520.59	25.34	5275.68	
23	66	-0.14	-0.25	0.24	-0.20	-0.10	-9.32	255.09	493.37	25.26	5672.78	
23	66	-0.08	-0.43	0.40	-0.33	-0.01	-9.49	255.33	467.65	25.21	6064.57	
23	66	-0.42	-0.33	0.33	-0.35	-0.02	-9.51	254.82	443.16	25.22	6454.14	
23	66	-0.16	-0.31	0.46	-0.32	-0.05	-9.47	255.34	419.82	25.12	6842.11	
23	66	-0.31	-0.30	0.28	-0.46	-0.03	-9.50	255.38	398.70	25.09	7208.47	
23	65	-0.29	-0.42	0.13	-0.32	-0.14	-9.39	255.06	377.82	25.10	7586.43	
23	65	-0.13	-0.06	0.37	-0.25	-0.03	-9.38	254.97	357.92	25.02	7962.79	
22	64	-0.04	-0.35	0.21	-0.21	-0.04	-9.45	255.59	339.04	24.99	8335.81	
22	63	-0.31	-0.61	0.50	-0.48	-0.02	-9.40	255.41	321.38	24.97	8700.30	
22	63	-0.18	-0.32	0.04	-0.23	-0.03	-9.41	255.33	304.40	24.90	9066.50	
22	62	0.03	-0.44	0.16	-0.33	-0.11	-9.26	255.52	288.33	24.92	9428.46	
22	61	-0.19	-0.28	0.49	-0.32	-0.14	-9.35	255.22	273.17	24.89	9785.25	
22	60	0.04	-0.36	0.10	-0.34	-0.04	-9.45	255.49	258.77	24.84	10139.42	
22	59	-0.12	-0.23	0.22	-0.14	-0.02	-9.37	255.40	245.12	24.77	10490.14	
22	58	-0.13	-0.05	0.31	-0.23	-0.11	-9.26	255.30	232.26	24.80	10835.25	
22	57	-0.23	-0.33	0.20	-0.44	-0.09	-9.47	254.78	220.45	24.77	11166.39	
22	56	-0.04	-0.14	0.24	-0.26	-0.04	-9.40	255.18	208.90	24.74	11504.07	
22	56	-0.20	-0.30	0.25	-0.26	-0.09	-9.31	254.67	197.81	24.69	11843.07	
22	55	-0.07	-0.25	0.20	-0.28	-0.15	-9.36	255.26	187.41	24.69	12175.13	
22	54	-0.25	-0.21	0.43	-0.36	-0.11	-9.35	255.58	177.15	24.65	12517.94	
22	53	-0.10	-0.36	0.10	-0.13	-0.02	-9.33	254.67	167.79	24.63	12844.74	
21	52	-0.24	-0.47	0.23	-0.11	-0.01	-9.38	255.19	158.64	24.59	13178.74	
21	51	-0.19	-0.40	0.39	-0.20	-0.01	-9.32	255.48	150.31	24.58	13496.89	
21	50	-0.04	-0.25	0.19	-0.22	-0.05	-9.48	254.99	142.38	24.61	13813.35	
21	50	0.13	-0.14	0.27	-0.32	-0.05	-9.47	255.10	134.57	24.52	14139.06	
21	50	-0.15	-0.11	-0.19	-0.34	-0.13	-9.46	254.90	127.32	24.53	14455.47	
21	49	-0.45	-0.40	0.26	-0.33	-0.10	-9.39	254.61	120.78	24.48	14753.88	
21	49	-0.28	-0.23	0.31	-0.43	-0.08	-9.37	255.35	114.02	24.49	15076.19	
21	48	-0.52	-0.24	0.05	-0.33	-0.15	-9.38	255.61	107.83	24.45	15385.33	
21	48	-0.17	-0.15	0.25	-0.44	-0.17	-9.44	254.43	101.95	24.39	15692.30	
21	48	-0.14	-0.35	0.25	-0.38	-0.22	-9.44	255.23	96.53	24.41	15988.20	
21	47	0.07	-0.42	0.08	-0.22	-0.18	-9.30	255.52	91.14	24.37	16296.62	
21	47	-0.18	-0.43	0.27	-0.27	-0.11	-9.35	255.00	86.34	24.37	16583.57	
21	47	-0.11	-0.51	0.05	-0.31	-0.16	-9.49	254.75	81.64	24.34	16877.29	
21	47	-0.47	-0.36	0.53	-0.22	-0.16	-9.42	255.12	77.22	24.28	17166.99	
21	46	-0.09	-0.38	0.34	-0.14	-0.02	-9.41	255.10	72.85	24.32	17466.38	
21	46	-0.42	-0.49	0.52	-0.22	-0.06	-9.26	255.19	68.86	24.27	17752.22	
21	46	-0.37	-0.28	0.18	-0.16	-0.18	-9.38	255.33	65.24	24.26	18024.58	
21	46	-0.22	-0.38	0.14	-0.16	-0.07	-9.39	254.77	61.70	24.22	18302.14	
21	46	-0.36	-0.69	0.01	-0.33	-0.12	-9.33	254.82	58.29	24.22	18582.30	
21	45	0.03	-0.28	-0.04	-0.15	-0.06	-9.46	255.13	55.19	24.20	18848.44	
21	45	-0.05	-0.46	0.14	-0.25	-0.22	-9.41	254.58	52.11	24.16	19124.90	
21	45	-0.32	-0.40	0.38	-0.17	-0.06	-9.35	254.48	49.26	24.15	19393.28	
21	45	-0.12	-0.31	0.47	-0.32	-0.05	-9.41	254.77	46.44	24.13	19671.78	
21	44	-0.19	-0.60	0.31	-0.39	-0.12	-9.27	254.96	44.09	24.10	19913.81	
21	44	-0.30	-0.45	0.21	-0.19	-0.11	-9.36	255.32	41.66	24.06	20175.60	
21	44	-0.21	-0.35	0.23	-0.13	-0.12	-9.47	255.04	39.45	24.06	20425.52	
21	44	-0.33	-0.44	0.39	-0.21	-0.16	-9.35	254.99	37.35	24.02	20672.99	
21	44	0.13	-0.30	0.11	-0.20	-0.08	-9.29	254.86	35.14	24.04	20946.31	
21	44	-0.34	-0.35	0.25	-0.16	-0.11	-9.18	255.10	33.39	23.99	21172.11	
21	44	-0.26	-0.24	0.18	-0.25	-0.10	-9.23	255.37	31.61	23.99	21411.51	
21	43	-0.23	-0.62	0.30	-0.13	-0.11	-9.33	254.99	29.86	23.98	21658.39	
21	43	0.00	-0.64	0.38	-0.17	-0.05	-9.38	255.73	28.09	23.97	21920.41	
21	43	-0.03	-0.26	0.39	-0.15	-0.09	-9.47	255.18	26.52	23.95	22164.74	
21	43	-0.21	-0.67	0.74	-0.25	-0.16	-9.34	254.92	25.15	23.94	22387.28	
21	43	-0.08	-0.44	0.45	-0.15	-0.12	-9.38	254.92	23.59	23.91	22653.25	
21	42	-0.29	-0.44	-0.05	-0.33	-0.22	-9.35	255.24	22.47	23.87	22853.40	
21	42	-0.18	-0.59	0.25	-0.25	-0.08	-9.52	255.07	21.25	23.89	23079.58	
21	42	-0.12	-0.39	0.45	-0.20	-0.07	-9.57	254.86	20.09	23.83	23305.94	
21	42	-0.11	-0.30	0.36	-0.06	-0.09	-9.43	254.86	18.96	23.82	23536.08	
21	42	-0.08	-0.46	0.30	-0.23	-0.01	-9.62	254.98	17.83	23.81	23776.86	
21	41	-0.02	-0.46	0.11	-0.16	-0.08	-9.36	254.62	16.96	23.81	23971.98	
21	41	-0.13	-0.39	0.19	-0.32	-0.17	-9.38	255.27	16.11	23.79	24170.59	
21	41	-0.39	-0.44	0.17	-0.38	-0.17	-9.40	254.96	15.22	23.80	24387.86	
21	41	-0.38	-0.29	0.60	-0.12	-0.06	-9.35	255.03	14.38	23.77	24601.08	
21	40	-0.43	-0.45	0.39	-0.27	-0.11	-9.26	254.76	13.60	23.73	24810.23	
21	40	-0.07	-0.29	0.11	-0.22	-0.08	-9.59	254.74	12.73	23.77	25054.41	
21	40	0.03	-0.31	0.23	-0.08	-0.11	-9.25	255.19	12.14	23.70	25228.02	
21	40	-0.13	-0.41	0.30	-0.27	-0.13	-9.39	255.30	11.54	23.69	25410.06	
21	39	-0.06	-0.27	0.38	-0.05	-0.11	-9.30	254.90	11.05	23.72	25566.30	
21	39	-0.32	-0.55	0.67	-0.32	-0.10	-9.32	254.61	10.36	23.66	25794.59	
21	39	-0.21	-0.33	0.39	-0.15	-0.14	-9.29	254.85	9.93	23.68	25943.54	
21	39	-0.06	-0.47	0.34	-0.34	-0.26	-9.53	254.66	9.41	23.67	26131.92	
21	39	-0.35	-0.57	0.17	-0.14	-0.12	-9.35	254.55	8.90	23.64	26321.63	
21	39	-0.24	-0.20	0.20	-0.04	-0.09	-9.47	254.67	8.44	23.61	26504.05	
21	38	0.05	-0.72	0.52	-0.13	-0.13	-9.43	254.65	8.07	23.62	26656.32	
21	38	-0.43	-0.17	0.37	-0.12	-0.06	-9.44	254.74	7.69	23.65	26815.66	
21	38	-0.12	-0.31	0.45	-0.10	-0.07	-9.45	254.95	7.43	23.63	26929.99	
21	38	0.11	-0.35	0.34	-0.32	-0.10	-9.54	254.75	7.14	23.58	27060.72	
21	37	-0.50	-0.40	0.40	-0.25	-0.17	-9.41	255.39	6.93	23.58	27161.35	
21	37	-0.37	-0.27	0.19	-0.36	-0.08	-9.56	254.40	6.81	23.52	27216.17	
21	37	-0.11	-0.52	0.19	-0.38	-0.17	-9.36	254.40	6.78	23.51	27231.61	
21	37	-0.58	-0.66	0.40	-0.24	-0.08	-9.53	254.37	6.79	23.51	27228.68	
21	37	-0.27	-0.60	0.02	-0.27	-0.06	-9.29	254.84	6.76	23.52	27242.87	
21	36	-0.39	-0.25	0.23	-0.08	-0.08	-9.47	255.11	6.75	23.51	27243.81	
21	36	-0.31	-0.38	0.32	-0.22	-0.05	-9.41	254.86	6.75	23.50	27246.28	
21	36	-0.15	-0.38	0.17	-0.33	-0.24	-9.34	255.20	6.74	23.48	27252.05	
21	35	0.10	-0.40	0.21	-0.16	-0.09	-9.51	254.99	6.74	23.49	27250.40	
21	35	-0.05	-0.21	0.27	-0.28	-0.11	-9.44	255.08	6.75	23.50	27247.34	
21	35	-0.11	-0.44	0.27	-0.28	-0.11	-9.41	255.23	6.70	23.42	27269.39	
21	34	0.07	-0.24	0.31	-0.32	-0.09	-9.59	254.74	6.70	23.42	27267.62	
21	34	-0.19	-0.31	0.30	-0.42	-0.20	-9.49	254.57	6.67	23.41	27286.70	
21	34	-0.06	-0.44	0.04	-0.29	-0.13	-9.35	254.72	6.68	23.36	27281.00	
21	33	0.23	-0.38	0.53	-0.26	-0.04	-9.45	254.45	6.66	23.37	27287.88	
21	33	-0.31	-0.43	0.39	-0.20	-0.18	-9.47	254.91	6.67	23.38	27283.85	
21	33	-0.17	-0.43	0.22	-0.21	-0.16	-9.36	255.00	6.65	23.33	27294.90	
21	32	-0.35	-0.38	0.17	-0.18	-0.11	-9.38	254.39	6.65	23.33	27294.90	
21	32	-0.07	-0.39	2.18	-0.33	-0.21	-9.37	255.16	6.64	23.32	27297.16	
21	32	-0.46	-0.60	0.23	-0.12	-0.13	-9.35	255.21	6.64	23.32	27297.88	
21	31	-0.26	-0.46	0.55	-0.32	-0.13	-9.48	254.92	6.64	23.31	27300.74	
21	31	-0.51	-0.46	0.14	-0.37	-0.10	-9.45	255.08	6.62	23.27	27310.05	
21	31	-2.06	-0.31	0.24	-0.19	-0.12	-9.44	255.63	6.62	23.29	27307.18	
21	30	-0.31	-0.33	0.15	-0.23	-0.06	-9.47	255.21	6.59	23.23	27324.05	
21	30	0.06	-0.17	0.15	-0.26	-0.11	-9.22	254.53	6.59	23.19	27321.65	
21	29	0.11	-0.44	0.25	-0.07	-0.05	-9.37	254.82	6.58	23.18	27330.05	
21	29	-0.08	-0.38	0.20	-0.21	-0.05	-9.39	254.81	6.57	23.21	27332.21	
21	29	-0.03	-0.40	0.42	-0.14	-0.17	-9.23	254.69	6.54	23.17	27347.62	
21	28	-0.07	-0.34	0.49	-0.07	-0.01	-9.47	254.76	6.56	23.18	27337.02	
21	28	-0.13	-0.36	0.45	-0.29	-0.17	-9.39	254.87	6.54	23.15	27345.81	
21	28	-0.34	-0.45	0.30	-0.03	-0.12	-9.39	254.92	6.52	23.11	27356.43	
21	28	-0.10	-0.38	0.23	-0.33	-0.12	-9.44	254.67	6.52	23.10	27358.24	
21	27	-0.53	-0.50	0.29	-0.22	-0.06	-9.44	255.06	6.51	23.09	27361.75	
21	27	-0.09	-0.35	0.13	-0.36	-0.12	-9.64	254.71	6.50	23.07	27368.29	
21	27	-0.18	-0.40	0.23	-0.33	-0.18	-9.32	254.99	6.49	23.05	27375.33	
21	28	-0.25	-0.50	0.46	-0.32	-0.09	-9.46	255.19	6.47	23.05	27380.68	
21	28	-0.36	-0.53	0.23	-0.22	-0.12	-9.31	254.48	6.45	22.99	27392.61	
21	28	-0.24	-0.52	0.39	-0.13	-0.09	-9.47	254.55	6.44	22.96	27399.21	
21	28	-0.03	-0.24	0.12	-0.32	-0.13	-9.34	254.38	6.43	22.99	27400.91	
21	27	-0.07	-0.46	0.31	-0.06	-0.03	-9.46	254.63	6.44	22.96	27397.98	
21	27	-0.24	-0.46	0.52	-0.27	-0.10	-9.39	255.26	6.43	22.94	27404.59	
21	27	-0.42	-0.44	0.38	-0.24	-0.07	-9.59	255.18	6.41	22.91	27413.53	
21	26	-0.40	-0.37	0.52	-0.19	-0.11	-9.46	255.06	6.42	22.93	27408.74	
21	26	0.10	-0.38	0.34	-0.22	-0.11	-9.51	254.92	6.37	22.85	27432.08	
21	26	-0.17	-0.17	0.35	-0.35	-0.14	-9.51	255.00	6.39	22.87	27425.56	
21	26	0.28	-0.22	0.38	-0.27	-0.28	-9.26	254.70	6.39	22.87	27424.94	
21	25	-0.18	-0.41	0.35	-0.34	-0.11	-9.52	255.20	6.36	22.85	27436.89	
21	25	-0.42	-0.52	0.51	-0.33	-0.15	-9.43	254.95	6.36	22.82	27435.66	
21	25	-0.17	-0.48	0.17	-0.28	-0.10	-9.57	255.13	6.34	22.79	27447.26	
21	25	-0.38	-0.36	0.63	-0.32	-0.20	-9.29	255.26	6.32	22.76	27457.42	
21	25	-0.23	-0.54	0.11	-0.19	-0.05	-9.47	254.64	6.32	22.77	27458.66	
21	24	-0.15	-0.57	0.52	-0.18	-0.16	-9.31	254.60	6.30	22.73	27467.72	
21	24	-0.04	-0.65	0.33	-0.16	-0.02	-9.53	254.67	6.32	22.76	27456.92	
21	24	-0.49	-0.61	0.47	-0.28	-0.10	-9.42	254.31	6.28	22.68	27479.30	
21	24	-0.24	-0.43	0.35	-0.12	-0.12	-9.49	254.36	6.26	22.66	27487.29	
21	23	1.94	-0.49	0.40	-0.32	-0.14	-9.29	254.44	6.26	22.64	27490.78	
21	23	-0.17	-0.36	0.37	-0.31	-0.12	-9.46	254.88	6.25	22.64	27493.28	
21	23	-0.25	-0.37	0.46	-0.23	-0.13	-9.43	254.61	6.25	22.64	27492.79	
21	23	0.00	-0.38	0.46	-0.19	-0.14	-9.37	254.56	6.23	22.60	27503.56	
21	23	0.04	-0.37	0.54	-0.13	-0.04	-9.54	254.52	6.20	22.56	27520.15	
21	22	-0.12	-0.42	0.28	-0.35	-0.19	-9.41	254.63	6.21	22.57	27515.87	
21	22	-0.17	-0.29	0.64	-0.26	-0.10	-9.59	254.73	6.20	22.54	27518.38	
21	22	0.04	-0.29	0.16	-0.32	-0.20	-9.45	255.04	6.18	22.52	27530.74	
21	22	-0.13	-0.44	0.36	-0.22	-0.10	-9.47	254.81	6.18	22.50	27531.88	
21	22	0.02	-0.38	0.60	-0.18	-0.11	-9.43	254.69	6.16	22.47	27542.88	
21	21	-0.02	-0.46	0.20	-0.36	-0.18	-9.40	254.51	6.16	22.47	27542.88	
21	21	-0.31	-0.37	0.33	-0.23	-0.09	-9.46	254.48	6.14	22.44	27551.00	
21	21	-0.08	-0.46	0.35	-0.39	-0.31	-9.51	254.11	6.13	22.42	27555.96	
21	21	0.31	-0.21	0.31	-0.19	-0.03	-9.53	254.61	6.13	22.42	27557.86	
21	21	-0.04	-0.25	0.33	-0.33	-0.17	-9.43	254.61	6.11	22.38	27568.30	
21	21	0.10	-0.43	0.12	-0.33	-0.14	-9.64	254.28	6.08	22.37	27581.46	
21	20	-0.03	-0.52	0.34	-0.19	-0.05	-9.48	254.19	6.09	22.33	27578.26	
21	20	-0.02	-0.46	0.22	-0.35	-0.13	-9.47	254.56	6.07	22.30	27588.89	
21	20	-0.21	-0.66	0.16	-0.20	-0.05	-9.62	253.94	6.06	22.27	27593.25	
21	20	0.02	-0.51	0.19	-0.16	-0.04	-9.46	254.48	6.04	22.29	27604.56	
21	20	-0.19	-0.67	0.33	-0.23	-0.16	-9.45	254.70	6.05	22.28	27598.25	
21	20	-0.35	-0.52	0.25	-0.25	-0.08	-9.59	253.93	6.03	22.24	27610.22	
21	20	-0.38	-0.39	0.44	-0.26	-0.15	-9.42	254.13	6.03	22.25	27607.13	
21	19	-0.21	-0.45	0.01	-0.35	-0.17	-9.41	254.09	5.98	22.15	27637.25	
21	19	0.10	-0.31	0.25	-0.34	-0.12	-9.53	254.16	5.98	22.15	27637.25	
21	19	-0.01	-0.32	0.11	-0.15	-0.01	-9.51	254.31	5.98	22.17	27632.71	
21	19	-0.04	-0.46	0.59	-0.21	-0.24	-9.29	254.59	5.97	22.15	27638.41	
21	18	0.03	-0.52	0.59	-0.32	-0.23	-9.27	254.09	5.94	22.08	27654.29	
21	18	-0.26	-0.52	0.24	-0.25	-0.11	-9.41	253.99	5.94	22.07	27658.20	
21	18	-0.06	-0.38	0.44	-0.14	-0.11	-9.42	254.05	5.92	22.08	27667.73	
21	17	-0.12	-0.26	0.34	-0.13	-0.05	-9.45	253.85	5.92	22.02	27665.77	
21	17	0.00	-0.39	-0.11	-0.29	-0.12	-9.49	254.31	5.88	22.03	27690.03	
21	17	-0.11	-0.52	0.31	-0.38	-0.11	-9.58	254.07	5.89	22.00	27682.40	
21	16	0.01	-0.43	0.46	-0.39	-0.16	-9.47	254.00	5.86	21.95	27698.98	
21	16	-0.07	-0.23	0.21	-0.11	-0.16	-9.42	253.97	5.87	21.97	27691.87	
21	15	-0.36	-0.49	0.38	-0.12	-0.06	-9.55	253.82	5.85	21.92	27706.63	
21	15	0.08	-0.49	0.13	-0.11	-0.08	-9.43	253.96	5.83	21.89	27716.28	
21	14	-0.03	-0.19	0.41	-0.28	-0.11	-9.39	253.98	5.81	21.87	27723.97	
21	14	-0.30	-0.51	0.01	-0.18	-0.09	-9.35	254.07	5.80	21.85	27730.35	
21	14	-0.19	-0.29	0.20	-0.11	-0.06	-9.49	253.90	5.76	21.83	27751.80	
21	13	-0.32	-0.26	0.25	-0.15	-0.14	-9.41	254.21	5.77	21.80	27746.06	
21	12	-0.31	-0.35	0.36	-0.33	-0.10	-9.44	254.35	5.76	21.75	27755.01	
21	12	-0.07	-0.54	0.87	-0.27	-0.11	-9.43	254.17	5.75	21.73	27759.02	
21	12	-0.04	-0.38	0.18	-0.18	-0.08	-9.57	254.11	5.74	21.73	27762.24	
21	11	-0.07	-0.39	0.56	-0.17	-0.13	-9.52	254.05	5.72	21.71	27773.24	
21	11	-0.06	-0.43	0.41	-0.21	-0.13	-9.44	253.38	5.71	21.68	27783.73	
21	10	0.10	-0.31	0.07	-0.23	-0.12	-9.42	254.36	5.70	21.66	27788.99	
21	10	-0.17	-0.37	0.50	-0.17	-0.13	-9.46	253.59	5.70	21.66	27788.99	
21	9	0.05	-0.45	0.47	-0.19	-0.12	-9.42	253.98	5.66	21.60	27808.74	
21	9	-0.19	-0.66	0.35	-0.12	-0.16	-9.37	254.26	5.63	21.55	27824.50	
21	8	-0.25	-0.30	0.41	-0.27	-0.16	-9.45	254.23	5.61	21.53	27834.45	
21	8	-0.22	-0.25	0.45	-0.22	-0.06	-9.50	254.08	5.61	21.50	27834.45	
21	7	-0.33	-0.75	0.21	-0.21	-0.16	-9.38	253.41	5.60	21.46	27844.43	
21	7	-0.25	-0.24	0.34	-0.23	-0.17	-9.47	253.70	5.60	21.46	27843.74	
21	7	0.05	-0.23	0.15	-0.28	-0.06	-9.57	253.60	5.57	21.42	27861.02	
21	6	-0.08	-0.32	0.29	-0.22	-0.03	-9.56	253.65	5.56	21.43	27863.08	
21	5	-0.17	-0.27	0.50	-0.11	-0.03	-9.58	253.69	5.56	21.42	27865.01	
21	5	0.05	-0.24	0.40	-0.22	-0.02	-9.54	253.32	5.52	21.35	27886.39	
21	5	-0.36	-0.66	0.38	-0.19	-0.07	-9.51	253.51	5.51	21.33	27893.03	
21	5	-0.45	-0.59	0.33	-0.21	-0.02	-9.51	253.49	5.49	21.30	27902.61	
21	5	-0.27	-0.64	0.14	-0.32	-0.11	-9.46	254.03	5.50	21.31	27900.53	
21	5	-0.30	-0.45	0.32	-0.18	-0.09	-9.48	253.35	5.47	21.27	27914.57	
21	5	0.02	-0.32	0.76	-0.28	-0.11	-9.56	253.20	5.44	21.24	27930.91	
21	5	-0.18	-0.34	0.29	-0.28	-0.17	-9.52	253.46	5.47	21.21	27917.36	
21	5	-0.22	-0.43	0.35	-0.23	-0.10	-9.48	253.62	5.43	21.19	27939.04	
21	5	-0.04	-0.13	0.26	-0.21	-0.01	-9.60	253.60	5.40	21.18	27957.45	
20	5	-0.25	-0.38	0.33	-0.21	-0.08	-9.43	253.70	5.39	21.16	27961.68	
20	5	-0.11	-0.41	0.25	-0.23	-0.11	-9.48	253.62	5.37	21.09	27973.13	
20	5	-0.09	-0.43	0.08	-0.30	-0.03	-9.53	253.22	5.36	21.08	27977.37	
20	5	-0.45	-0.71	0.54	-0.21	-0.07	-9.58	254.04	5.35	21.06	27982.19	
20	5	0.06	-0.40	0.43	-0.38	-0.12	-9.49	254.01	5.34	21.04	27989.72	
20	5	-0.04	-0.34	0.10	-0.14	-0.05	-9.61	254.01	5.33	21.02	27996.54	
20	5	-0.11	-0.31	0.31	-0.12	-0.09	-9.47	253.61	5.32	20.99	28004.81	
20	5	-0.30	-0.17	0.47	-0.34	-0.10	-9.50	253.77	5.29	20.95	28017.24	
20	5	-0.21	-0.12	0.50	-0.23	-0.05	-9.58	253.63	5.31	20.97	28010.38	
20	5	1.79	-0.38	0.08	-0.26	-0.02	-9.63	253.91	5.28	20.94	28024.98	
20	5	0.04	-0.11	0.49	-0.31	-0.14	-9.46	253.67	5.27	20.89	28031.87	
20	5	-0.06	-0.31	0.49	-0.33	-0.20	-9.50	252.96	5.26	20.88	28040.35	
20	5	-0.21	-0.54	0.60	-0.35	-0.17	-9.70	253.05	5.26	20.84	28039.49	
20	5	-0.16	-0.50	0.44	-0.32	-0.04	-9.51	253.50	5.23	20.84	28056.95	
20	5	-0.06	-0.48	0.25	-0.23	-0.13	-9.39	253.50	5.19	20.76	28080.88	
20	5	0.00	-0.54	0.33	-0.44	-0.23	-9.37	253.25	5.18	20.76	28082.92	
20	5	-0.03	-0.12	0.64	-0.32	-0.12	-9.49	253.86	5.18	20.76	28083.65	
20	5	-0.25	-0.37	0.37	-0.30	-0.09	-9.43	253.72	5.18	20.75	28085.83	
20	5	-0.08	-0.58	0.26	-0.26	-0.18	-9.39	253.71	5.16	20.72	28095.02	
20	5	-0.17	-0.77	0.11	-0.20	-0.13	-9.47	253.03	5.14	20.67	28111.86	
20	5	-0.12	-0.53	0.23	-0.19	-0.02	-9.61	253.51	5.13	20.66	28116.26	
20	5	0.00	-0.49	0.24	-0.20	-0.07	-9.52	253.25	5.11	20.63	28127.59	
20	5	-0.05	-0.53	0.32	-0.18	-0.08	-9.45	253.57	5.10	20.62	28134.07	
20	5	-0.13	-0.49	0.50	-0.26	-0.11	-9.51	253.57	5.12	20.61	28119.79	
20	5	-0.16	-0.34	0.38	-0.12	-0.06	-9.59	253.34	5.05	20.59	28161.18	
20	5	-0.31	-0.57	0.44	-0.05	-0.05	-9.60	253.72	5.06	20.54	28159.10	
20	5	0.00	-0.55	0.38	-0.36	-0.17	-9.48	253.43	5.03	20.53	28173.38	
20	5	-0.17	-0.26	0.21	-0.32	-0.22	-9.48	253.32	5.04	20.49	28169.06	
20	5	-0.31	-0.67	0.38	-0.10	-0.05	-9.49	253.34	5.04	20.50	28169.81	
20	5	-0.12	-0.52	0.60	-0.18	-0.12	-9.40	253.66	5.02	20.47	28180.54	
20	5	-0.13	-0.71	0.19	-0.35	-0.20	-9.53	253.49	5.02	20.48	28179.20	
20	5	-0.04	-0.42	0.45	-0.23	-0.09	-9.48	252.92	5.00	20.43	28195.81	
20	5	-0.35	-0.45	0.55	-0.21	-0.07	-9.49	253.54	4.99	20.41	28200.76	
20	5	-0.21	-0.53	0.23	-0.32	-0.07	-9.53	253.35	4.96	20.36	28218.98	
19	5	-0.06	-0.18	0.40	-0.35	-0.11	-9.54	253.46	4.95	20.34	28225.63	
19	5	-0.09	-0.17	0.36	-0.21	-0.09	-9.58	253.63	4.94	20.33	28230.62	
19	5	-0.17	-0.63	0.64	-0.32	-0.09	-9.56	253.18	4.93	20.31	28235.77	
19	5	-0.22	-0.38	0.45	-0.32	-0.04	-9.51	253.85	4.92	20.28	28246.24	
19	5	-0.26	-0.45	0.46	-0.26	-0.13	-9.45	253.15	4.92	20.26	28242.44	
19	5	-0.10	-0.20	0.31	-0.23	-0.08	-9.50	253.27	4.90	20.22	28257.05	
19	5	0.13	-0.58	0.47	-0.30	-0.11	-9.44	253.17	4.87	20.20	28277.69	
19	5	-0.29	-0.52	0.38	-0.28	-0.20	-9.42	252.54	4.87	20.18	28277.07	
19	5	-0.10	-0.37	0.72	-0.16	-0.16	-9.47	253.19	4.86	20.18	28283.66	
19	5	-0.20	-0.31	0.42	-0.27	-0.09	-9.49	253.16	4.84	20.15	28295.66	
19	5	0.02	-0.34	0.31	-0.13	-0.05	-9.65	253.28	4.83	20.13	28299.97	
19	5	-0.22	-0.34	0.30	-0.24	-0.06	-9.57	253.51	4.82	20.12	28305.37	
19	5	-0.22	-0.17	0.23	-0.25	-0.11	-9.46	253.02	4.80	20.08	28317.90	
19	5	-0.25	-0.48	0.26	-0.14	-0.10	-9.47	253.07	4.79	20.07	28322.40	
19	5	-0.07	-0.35	0.72	-0.24	-0.05	-9.52	253.45	4.78	20.04	28334.51	
19	5	-0.31	-0.38	0.38	-0.32	-0.08	-9.54	252.91	4.78	20.02	28332.96	
19	5	-0.11	-0.36	0.59	-0.24	-0.12	-9.35	253.05	4.74	20.03	28357.61	
19	5	0.14	-0.25	0.25	-0.35	-0.21	-9.47	253.23	4.78	20.01	28334.51	
19	5	-0.04	-0.42	0.57	-0.35	-0.14	-9.53	253.11	4.73	20.00	28362.31	
19	5	-0.14	-0.29	0.33	-0.33	-0.17	-9.64	253.10	4.74	19.96	28356.21	
19	5	-0.14	-0.45	0.38	-0.16	-0.04	-9.63	252.95	4.73	19.95	28364.51	
19	5	-0.52	-0.57	0.47	-0.14	-0.05	-9.55	253.46	4.71	19.92	28375.03	
19	5	-0.12	-0.44	0.37	-0.16	-0.10	-9.38	253.36	4.70	19.90	28384.16	
19	5	-0.17	-0.42	0.45	-0.11	-0.07	-9.38	253.01	4.68	19.87	28396.33	
19	5	-0.12	-0.61	0.46	-0.18	-0.06	-9.51	253.38	4.68	19.86	28397.91	
19	5	0.10	-0.39	0.38	-0.27	-0.09	-9.49	253.37	4.68	19.86	28397.91	
19	5	-0.28	-0.62	0.72	-0.25	-0.11	-9.43	253.11	4.66	19.83	28411.70	
19	5	0.05	-0.50	0.39	-0.32	-0.21	-9.46	253.12	4.65	19.81	28415.36	
19	5	-0.12	-0.38	0.41	-0.24	-0.12	-9.55	252.55	4.65	19.78	28413.13	
19	5	-0.11	-0.53	0.45	-0.23	-0.05	-9.81	253.06	4.61	19.73	28443.92	
19	5	-0.03	-0.46	0.58	-0.16	-0.10	-9.61	253.18	4.63	19.77	28430.17	
19	5	-0.17	-0.17	0.37	-0.11	-0.03	-9.47	253.03	4.59	19.72	28451.62	
19	5	-0.08	-0.35	0.60	-0.27	-0.03	-9.54	252.96	4.58	19.71	28460.14	
19	5	-0.23	-0.43	0.73	-0.32	-0.08	-9.59	253.48	4.56	19.70	28471.74	
18	5	-0.25	-0.40	0.36	-0.14	-0.05	-9.69	253.51	4.56	19.66	28473.36	
18	5	-0.33	-0.39	0.35	-0.24	-0.09	-9.35	253.65	4.59	19.70	28457.73	
18	5	-0.17	-0.32	0.27	-0.14	-0.07	-9.47	253.51	4.54	19.62	28486.62	
18	5	-0.14	-0.58	0.51	-0.13	0.02	-9.66	253.34	4.55	19.64	28481.28	
18	5	-0.12	-0.47	0.50	-0.25	-0.11	-9.47	252.48	4.51	19.56	28509.22	
18	5	-0.02	-0.49	0.49	-0.30	-0.18	-9.23	253.37	4.51	19.56	28510.03	
18	5	-0.07	-0.34	0.57	-0.32	-0.16	-9.38	253.07	4.48	19.51	28528.18	
18	5	0.17	-0.47	0.40	-0.35	-0.09	-9.61	252.86	4.52	19.57	28502.21	
18	5	-0.24	-0.26	0.40	-0.28	-0.19	-9.56	252.70	4.49	19.52	28521.79	
18	5	-0.11	-0.49	0.89	-0.27	-0.19	-9.43	253.13	4.48	19.51	28529.82	
18	5	-0.12	-0.44	0.42	-0.27	-0.21	-9.38	253.42	4.47	19.50	28532.77	
18	5	-0.30	-0.42	0.49	-0.15	-0.03	-9.64	252.59	4.47	19.47	28537.53	
18	5	-0.15	-0.25	0.26	-0.21	-0.05	-9.67	253.03	4.44	19.44	28552.68	
18	5	0.06	-0.52	0.52	-0.13	-0.13	-9.51	253.10	4.45	19.47	28544.77	
18	5	-0.10	-0.46	0.52	-0.09	-0.08	-9.47	252.46	4.42	19.41	28566.89	
18	5	0.04	-0.31	0.26	-0.15	-0.01	-9.60	253.44	4.43	19.42	28562.26	
18	5	-0.14	-0.53	0.48	-0.12	-0.01	-9.68	252.95	4.42	19.40	28570.20	
18	5	-0.38	-0.51	0.47	-0.19	-0.03	-9.44	253.10	4.40	19.36	28584.49	
18	5	-0.15	-0.28	0.13	-0.24	-0.06	-9.47	253.01	4.39	19.35	28588.48	
18	5	0.06	-0.58	0.57	-0.33	-0.08	-9.58	253.48	4.39	19.36	28586.98	
18	5	-0.04	-0.39	0.46	-0.24	0.05	-9.61	253.41	4.35	19.33	28615.06	
18	5	0.01	-0.55	0.31	-0.19	-0.12	-9.37	253.69	4.39	19.31	28591.81	
18	5	-0.11	-0.46	0.35	-0.34	-0.05	-9.61	253.07	4.36	19.30	28611.88	
18	5	-0.03	-0.30	0.13	-0.20	-0.01	-9.75	252.92	4.35	19.28	28617.58	
18	5	-0.25	-0.45	0.41	-0.26	-0.09	-9.45	253.55	4.32	19.23	28636.77	
18	5	-0.40	-0.53	0.60	-0.17	-0.03	-9.61	253.68	4.33	19.24	28632.89	
18	5	-0.28	-0.52	0.47	-0.27	-0.07	-9.58	253.19	4.32	19.23	28636.77	
18	5	-0.40	-0.35	0.67	-0.35	-0.11	-9.51	253.49	4.32	19.24	28633.73	
18	5	-0.04	-0.47	0.38	-0.26	-0.05	-9.63	253.78	4.30	19.20	28647.41	
18	5	-0.05	-0.40	0.10	-0.22	-0.01	-9.59	253.11	4.29	19.17	28660.47	
18	5	0.02	-0.31	0.26	-0.24	-0.01	-9.62	253.66	4.28	19.16	28663.87	
17	5	0.01	-0.37	0.37	-0.26	-0.08	-9.47	253.83	4.25	19.10	28687.40	
17	5	-0.14	-0.33	0.37	-0.37	-0.05	-9.68	252.90	4.26	19.12	28680.22	
17	5	-0.29	-0.37	0.58	-0.32	-0.18	-9.57	253.48	4.24	19.12	28694.08	
17	5	-0.04	-0.41	0.49	-0.33	-0.14	-9.56	253.87	4.24	19.08	28689.11	
17	5	-0.24	-0.28	0.62	-0.32	-0.17	-9.35	253.64	4.21	19.06	28711.44	
17	5	-0.04	-0.52	0.88	-0.17	-0.12	-9.51	254.02	4.23	19.05	28697.34	
17	5	0.00	-0.46	0.37	-0.15	-0.12	-9.81	253.08	4.21	19.00	28714.71	
17	5	0.07	-0.33	0.35	-0.21	-0.01	-9.73	253.75	4.18	18.99	28732.16	
17	5	0.00	-0.38	0.57	-0.16	-0.01	-9.55	253.76	4.18	18.97	28737.88	
17	5	-0.26	-0.57	0.22	-0.32	-0.13	-9.31	253.57	4.18	18.99	28731.29	
17	5	-0.11	-0.45	0.43	-0.32	-0.12	-9.59	253.65	4.17	18.96	28742.04	
17	5	-0.28	-0.65	0.72	-0.28	-0.21	-9.54	252.78	4.15	18.92	28757.18	
17	5	-0.16	-0.34	0.70	-0.23	-0.10	-9.69	253.27	4.14	18.90	28766.44	
17	5	-0.12	-0.39	0.67	-0.09	-0.02	-9.48	253.10	4.11	18.86	28783.26	
17	5	-0.22	-0.39	0.26	-0.19	-0.09	-9.45	253.51	4.11	18.86	28781.50	
17	5	-0.03	-0.37	0.55	-0.28	-0.10	-9.57	253.63	4.11	18.85	28781.50	
17	5	-0.36	-0.38	0.78	-0.25	-0.01	-9.85	253.26	4.10	18.79	28792.58	
17	5	-0.15	-0.52	0.24	-0.21	-0.07	-9.46	252.89	4.10	18.80	28790.82	
17	5	-0.25	-0.31	0.09	-0.20	-0.09	-9.45	253.31	4.07	18.78	28811.11	
17	5	-0.16	-0.41	0.23	-0.27	-0.11	-9.54	253.58	4.07	18.77	28811.11	
17	5	-0.08	-0.27	0.39	-0.14	-0.09	-9.55	252.79	4.06	18.76	28822.10	
17	5	-0.17	-0.34	0.36	-0.02	-0.01	-9.56	252.58	4.04	18.73	28835.80	
17	5	-0.11	-0.45	0.70	-0.32	-0.17	-9.34	253.47	4.05	18.75	28828.86	
17	5	-0.08	-0.43	0.20	-0.39	-0.13	-9.63	253.31	4.02	18.69	28852.05	
17	5	-0.04	-0.53	0.35	-0.17	-0.10	-9.47	253.55	4.03	18.71	28842.57	
17	5	0.22	-0.15	0.45	-0.24	-0.17	-9.39	253.20	4.02	18.69	28852.95	
17	5	-0.06	-0.35	0.39	-0.43	-0.23	-9.48	253.49	4.01	18.69	28854.73	
17	5	-0.20	-0.58	0.53	-0.26	-0.16	-9.54	252.85	4.00	18.67	28862.26	
17	5	0.15	-0.16	0.42	-0.23	-0.10	-9.56	252.79	4.00	18.66	28861.54	
17	5	-0.02	-0.27	0.36	-0.27	-0.07	-9.47	253.03	3.99	18.66	28869.27	
17	5	0.11	-0.29	0.48	-0.07	-0.03	-9.49	253.36	3.99	18.66	28869.99	
16	5	0.22	-0.29	0.47	-0.27	-0.17	-9.25	252.86	3.96	18.63	28890.91	
16	5	-0.13	-0.22	0.53	-0.33	-0.10	-9.44	253.58	3.97	18.59	28888.38	
16	5	-0.17	-0.48	0.35	-0.18	-0.05	-9.63	255.40	3.97	18.60	28889.83	
16	5	-0.22	-0.38	0.38	-0.17	-0.12	-9.34	252.97	3.94	18.55	28910.14	
16	5	-0.32	-0.31	0.24	-0.27	-0.20	-9.51	252.96	3.92	18.52	28923.07	
16	5	-0.09	-0.45	0.41	-0.34	-0.09	-9.72	252.52	3.93	18.53	28918.70	
16	5	-0.08	-0.32	-0.10	-0.11	-0.01	-9.57	253.29	3.91	18.51	28929.10	
16	5	-0.08	-0.55	0.33	-0.21	-0.12	-9.45	253.23	3.92	18.51	28925.63	
16	5	-0.21	-0.68	0.20	-0.16	-0.01	-9.56	253.20	3.91	18.50	28932.76	
16	5	-0.39	-0.26	0.46	-0.18	-0.02	-9.47	253.85	3.89	18.47	28943.21	
16	5	-0.22	-0.63	0.56	-0.25	-0.04	-9.67	253.74	3.89	18.47	28947.62	
16	5	-0.44	-0.37	0.38	-0.27	-0.01	-9.60	253.50	3.86	18.42	28966.22	
16	5	0.06	-0.29	0.36	-0.34	-0.20	-9.47	253.59	3.87	18.44	28964.38	
16	5	-0.01	-0.49	0.59	-0.32	-0.22	-9.47	253.32	3.86	18.39	28966.22	
16	5	0.03	-0.46	0.40	-0.15	-0.06	-9.35	253.30	3.85	18.37	28973.99	
16	5	0.09	-0.34	0.38	-0.07	-0.09	-9.39	253.08	3.81	18.36	29004.29	
16	5	-0.22	-0.40	0.52	-0.13	-0.01	-9.64	253.46	3.82	18.34	28999.81	
16	5	-0.20	-0.21	0.46	-0.20	-0.09	-9.64	252.99	3.83	18.35	28993.66	
16	5	-0.31	-0.62	0.32	-0.20	-0.02	-9.65	253.33	3.80	18.30	29016.07	
16	5	-0.10	-0.32	0.51	-0.32	-0.15	-9.68	253.34	3.79	18.29	29022.25	
16	5	0.04	-0.27	0.14	-0.18	-0.15	-9.43	253.58	3.79	18.29	29022.25	
16	5	-0.07	-0.52	0.28	-0.13	-0.11	-9.49	253.34	3.78	18.26	29032.21	
16	5	-0.08	-0.31	0.38	-0.05	-0.01	-9.53	252.79	3.76	18.23	29049.37	
16	5	-0.27	-0.39	0.52	-0.32	-0.12	-9.67	253.23	3.75	18.25	29050.31	
16	5	-0.20	-0.66	0.34	-0.46	-0.14	-9.50	252.88	3.76	18.20	29049.37	
16	5	-0.05	-0.54	0.22	-0.19	-0.11	-9.59	253.16	3.72	18.16	29074.60	
16	5	-0.09	-0.25	0.48	-0.17	-0.02	-9.65	253.18	3.74	18.15	29063.76	
16	5	-0.04	-0.32	0.13	-0.01	-0.12	-9.44	253.14	3.72	18.17	29074.60	
16	5	-0.06	-0.52	0.46	-0.37	-0.27	-9.41	253.33	3.70	18.15	29089.28	
16	5	0.19	-0.40	0.53	-0.37	-0.13	-9.60	253.44	3.69	18.10	29103.84	
16	5	-0.08	-0.16	0.65	-0.26	-0.12	-9.42	253.01	3.68	18.10	29104.99	
15	5	0.13	-0.34	0.41	-0.24	-0.06	-9.63	253.43	3.69	18.11	29100.38	
15	5	-0.16	-0.40	0.47	-0.14	-0.07	-9.70	253.96	3.69	18.11	29101.15	
15	5	-0.11	-0.45	0.22	-0.19	-0.09	-9.62	252.93	3.65	18.04	29129.84	
15	5	0.13	-0.40	0.56	-0.14	0.09	-9.81	252.89	3.64	18.01	29142.81	
15	5	0.19	-0.59	0.55	-0.13	-0.09	-9.60	252.69	3.62	17.98	29156.62	
15	5	-0.25	-0.36	0.62	-0.36	-0.10	-9.51	253.06	3.63	18.00	29147.28	
15	5	0.04	-0.72	0.48	-0.36	-0.03	-9.81	252.79	3.64	17.98	29140.88	
15	5	-0.12	-0.63	0.50	-0.26	-0.01	-9.57	252.74	3.61	17.99	29163.05	
15	5	0.11	-0.48	0.54	-0.37	-0.10	-9.56	253.62	3.60	17.93	29175.36	
15	5	-0.29	-0.21	0.11	-0.21	-0.04	-9.71	253.04	3.60	17.93	29172.63	
15	5	-0.18	-0.38	0.56	-0.20	-0.01	-9.73	253.65	3.57	17.92	29194.21	
15	5	-0.02	-0.38	0.66	-0.36	-0.03	-9.72	252.85	3.56	17.87	29206.44	
15	5	-0.50	-0.35	0.18	-0.22	-0.04	-9.64	253.19	3.54	17.84	29220.49	
15	5	-0.24	-0.31	0.39	-0.19	-0.03	-9.70	253.24	3.53	17.82	29229.02	
15	5	0.05	-0.44	0.38	-0.41	-0.12	-9.61	253.09	3.54	17.84	29219.69	
15	5	-0.04	-0.54	0.46	-0.32	-0.11	-9.63	253.18	3.53	17.82	29229.02	
15	5	-0.08	-0.45	0.48	-0.33	-0.16	-9.45	253.51	3.52	17.80	29240.38	
15	5	-0.34	-0.17	0.49	-0.32	-0.24	-9.47	252.85	3.50	17.76	29256.76	
15	5	-0.17	-0.37	0.37	-0.17	-0.18	-9.32	252.99	3.49	17.75	29262.38	
15	5	0.17	-0.27	0.36	-0.11	-0.12	-9.43	253.82	3.50	17.75	29248.96	
15	5	-0.29	-0.58	0.60	-0.11	-0.09	-9.62	253.21	3.48	17.73	29267.39	
15	5	0.11	-0.74	0.41	-0.03	-0.01	-9.48	253.21	3.47	17.72	29276.05	
15	5	0.17	-0.30	0.39	-0.14	-0.01	-9.74	253.40	3.49	17.70	29259.57	
15	5	-0.23	-0.53	0.52	-0.26	0.02	-9.70	253.05	3.44	17.66	29305.79	
15	5	0.37	-0.38	0.24	-0.19	-0.13	-9.45	253.53	3.43	17.65	29308.63	
15	5	-0.14	-0.39	0.44	-0.33	-0.12	-9.46	253.27	3.43	17.64	29314.53	
15	5	-0.67	-0.54	0.77	-0.05	-0.09	-9.40	253.21	3.41	17.61	29324.11	
15	5	0.21	-0.48	0.55	-0.05	-0.14	-9.45	253.17	3.39	17.57	29346.64	
15	5	-0.57	-0.61	0.50	-0.05	-0.05	-9.43	253.31	3.40	17.58	29339.87	
15	5	-0.06	-0.58	0.25	-0.17	-0.14	-9.45	253.65	3.38	17.55	29354.67	
15	5	0.17	-0.13	0.43	-0.22	-0.08	-9.41	253.66	3.36	17.52	29366.43	
15	5	-0.31	-0.53	0.43	-0.17	-0.09	-9.56	253.34	3.36	17.52	29367.46	
15	5	-0.38	-0.61	0.43	-0.23	-0.10	-9.81	253.08	3.35	17.51	29376.37	
15	5	-0.45	-0.35	0.63	-0.12	-0.16	-9.67	253.25	3.34	17.49	29387.16	
14	5	-0.29	-0.48	0.08	-0.26	-0.13	-9.81	253.07	3.34	17.48	29390.28	
14	5	0.07	-0.46	0.36	-0.17	-0.07	-9.67	252.95	3.32	17.47	29399.24	
14	5	-0.35	-0.43	0.77	-0.32	-0.04	-9.66	252.86	3.31	17.42	29408.22	
14	5	-0.06	-0.43	0.82	-0.35	-0.11	-9.54	253.69	3.30	17.41	29421.00	
14	5	0.38	-0.54	0.36	-0.02	-0.05	-9.47	253.45	3.29	17.39	29429.19	
14	5	-0.19	-0.57	0.49	-0.12	-0.12	-9.40	253.87	3.27	17.36	29443.11	
14	5	-0.37	-0.35	0.65	-0.13	-0.11	-9.32	253.36	3.28	17.37	29440.15	
14	5	0.09	-0.53	0.63	-0.20	-0.08	-9.64	253.14	3.26	17.34	29456.44	
14	5	-0.41	-0.39	0.56	-0.28	-0.04	-9.57	253.72	3.26	17.38	29453.26	
14	5	0.02	-0.38	0.46	-0.32	-0.17	-9.27	252.92	3.25	17.29	29460.26	
14	5	0.32	0.03	0.63	-0.24	-0.14	-9.52	252.78	3.24	17.34	29469.40	
14	5	-0.02	-0.38	0.27	-0.26	-0.07	-9.51	252.34	3.23	17.29	29484.75	
14	5	-0.28	-0.49	0.45	-0.30	-0.07	-9.41	253.39	3.23	17.27	29483.47	
14	5	0.15	-0.36	0.54	-0.17	-0.12	-9.52	252.83	3.22	17.31	29486.68	
14	5	-0.44	-0.12	0.31	-0.23	-0.07	-9.70	253.21	3.21	17.25	29496.96	
14	5	0.03	-0.29	0.93	-0.18	-0.23	-9.70	252.98	3.21	17.25	29499.96	
14	5	-0.09	-0.55	0.54	-0.22	-0.10	-9.58	252.79	3.18	17.19	29529.72	
14	5	-0.19	-0.70	0.38	-0.24	-0.10	-9.55	252.83	3.19	17.21	29516.32	
14	5	-0.13	-0.42	0.54	-0.24	-0.10	-9.55	253.37	3.18	17.20	29524.53	
14	5	-0.10	-0.52	0.44	-0.24	-0.14	-9.58	253.35	3.17	17.18	29534.92	
14	5	-0.17	-0.49	0.52	-0.22	-0.10	-9.57	253.27	3.19	17.21	29517.40	
14	5	-0.14	-0.41	0.51	-0.23	-0.10	-9.56	252.83	3.15	17.14	29555.58	
14	5	-0.17	-0.46	0.45	-0.24	-0.09	-9.58	253.38	3.17	17.17	29536.87	
14	6	-0.13	-0.31	0.38	-0.23	-0.08	-9.58	252.39	3.14	17.14	29560.82	
14	6	-0.33	-0.23	0.33	-0.22	-0.11	-9.56	253.09	3.14	17.10	29564.10	
14	6	-0.04	-0.46	0.31	-0.22	-0.10	-9.55	253.18	3.13	17.12	29571.33	
14	6	-0.18	-0.32	0.50	-0.23	-0.10	-9.58	253.22	3.13	17.11	29574.40	
14	7	0.00	-0.31	0.53	-0.23	-0.09	-9.60	252.89	3.11	17.08	29590.01	
14	7	0.03	-0.24	0.25	-0.22	-0.11	-9.59	252.92	3.12	17.10	29575.27	
14	7	0.15	-0.21	0.46	-0.26	-0.11	-9.52	253.38	3.13	17.10	29573.30	
14	7	-0.10	-0.41	0.60	-0.21	-0.10	-9.54	253.02	3.12	17.08	29582.74	
14	8	0.01	-0.39	0.35	-0.24	-0.08	-9.55	253.29	3.10	17.06	29593.31	
14	8	-0.12	-0.43	0.41	-0.24	-0.11	-9.55	252.81	3.09	17.04	29604.80	
14	8	-0.10	-0.60	0.59	-0.22	-0.10	-9.56	253.43	3.08	17.02	29613.22	
14	8	-0.17	-0.29	0.41	-0.23	-0.10	-9.57	253.28	3.10	17.05	29599.49	
14	9	-0.21	-0.34	0.26	-0.22	-0.10	-9.58	253.41	3.07	17.00	29625.88	
14	9	-0.08	-0.34	0.16	-0.24	-0.10	-9.49	252.81	3.08	16.97	29618.54	
14	9	-0.17	-0.13	0.60	-0.25	-0.09	-9.55	253.58	3.06	16.96	29637.48	
14	10	0.07	-0.34	0.48	-0.24	-0.08	-9.57	253.34	3.07	16.97	29628.11	
14	10	-0.07	-0.30	0.55	-0.24	-0.10	-9.56	253.39	3.05	16.96	29638.82	
14	10	-0.04	-0.39	0.30	-0.24	-0.10	-9.60	252.94	3.04	17.00	29648.45	
14	10	-0.17	-0.45	0.33	-0.24	-0.10	-9.61	253.25	3.05	16.97	29638.82	
14	11	-0.21	-0.50	0.54	-0.25	-0.10	-9.59	252.76	3.04	16.95	29649.34	
14	11	-0.11	-0.52	0.53	-0.23	-0.09	-9.55	253.38	3.03	16.93	29661.24	
14	11	-0.06	-0.46	0.42	-0.25	-0.10	-9.58	252.79	3.02	16.91	29669.57	
14	11	0.06	-0.47	0.63	-0.23	-0.11	-9.52	252.89	3.03	16.93	29659.89	
14	11	-0.22	-0.29	0.66	-0.22	-0.10	-9.59	253.10	3.01	16.89	29680.41	
14	12	-0.19	-0.25	0.25	-0.23	-0.09	-9.58	253.42	3.02	16.91	29670.70	
14	12	-0.31	-0.45	0.56	-0.26	-0.09	-9.55	252.87	3.01	16.89	29681.54	
14	12	-0.37	-0.52	0.61	-0.25	-0.08	-9.58	253.75	3.00	16.87	29689.02	
14	12	-0.02	-0.31	0.36	-0.21	-0.10	-9.59	253.53	2.99	16.87	29694.24	
14	13	-0.29	-0.34	0.32	-0.21	-0.12	-9.60	253.19	3.00	16.86	29692.19	
14	13	-0.30	-0.37	0.58	-0.25	-0.09	-9.60	253.14	2.98	16.86	29703.10	
14	13	-0.13	-0.47	0.64	-0.26	-0.10	-9.54	253.48	2.99	16.84	29699.92	
14	13	0.06	-0.34	0.70	-0.24	-0.03	-9.60	253.13	2.98	16.81	29705.38	
14	14	-0.12	-0.28	0.51	-0.21	-0.10	-9.63	253.78	2.98	16.84	29707.43	
14	14	-0.07	-0.46	0.35	-0.24	-0.07	-9.59	253.67	2.97	16.82	29717.25	
14	14	-0.02	-0.25	0.69	-0.23	-0.10	-9.58	253.83	2.96	16.80	29726.86	
14	14	-0.19	-0.62	0.44	-0.22	-0.07	-9.60	253.28	2.95	16.79	29733.52	
14	14	-0.19	-0.48	0.50	-0.19	-0.14	-9.53	252.87	2.95	16.79	29734.67	
14	15	-0.02	-0.29	0.50	-0.23	-0.10	-9.59	252.78	2.97	16.81	29720.45	
14	15	-0.18	-0.32	0.22	-0.23	-0.10	-9.56	253.11	2.97	16.82	29717.25	
14	15	-0.10	-0.36	0.46	-0.25	-0.05	-9.58	253.02	2.96	16.80	29726.86	
14	15	0.04	-0.41	0.60	-0.21	-0.09	-9.59	252.95	2.97	16.81	29719.31	
14	15	-0.11	-0.55	0.52	-0.24	-0.08	-9.55	253.66	2.96	16.80	29729.16	
14	16	-0.19	-0.20	0.48	-0.24	-0.11	-9.61	253.24	2.95	16.79	29734.67	
14	16	-0.16	-0.30	0.53	-0.23	-0.09	-9.57	253.07	2.94	16.75	29742.26	
14	16	-0.11	-0.46	0.51	-0.22	-0.09	-9.55	253.04	2.94	16.76	29743.41	
14	16	-0.17	-0.47	0.59	-0.22	-0.10	-9.64	253.20	2.94	16.74	29747.79	
14	16	0.13	-0.42	0.40	-0.23	-0.02	-9.51	252.67	2.93	16.73	29758.65	
14	16	0.06	-0.37	0.57	-0.25	-0.06	-9.47	253.14	2.91	16.71	29768.61	
14	17	-0.28	-0.38	0.50	-0.17	-0.09	-9.49	252.97	2.93	16.76	29755.41	
14	17	-0.26	-0.56	0.66	-0.18	-0.11	-9.64	253.18	2.91	16.71	29774.19	
14	17	-0.05	-0.20	0.65	-0.29	-0.16	-9.47	253.24	2.91	16.71	29771.86	
14	17	-0.03	-0.17	0.03	-0.01	-0.05	-9.42	252.73	2.91	16.71	29774.19	
14	17	-0.04	-0.52	0.44	-0.30	-0.06	-9.71	253.67	2.91	16.71	29774.19	
14	17	-0.17	-0.52	0.30	-0.23	-0.16	-9.61	253.34	2.91	16.72	29768.61	
14	17	0.01	-0.25	0.41	-0.21	-0.06	-9.32	253.11	2.89	16.67	29793.07	
14	17	-0.09	-0.37	0.58	-0.33	-0.09	-9.67	252.83	2.90	16.70	29781.87	
14	17	-0.27	-0.44	0.60	-0.28	-0.12	-9.66	253.33	2.89	16.67	29795.41	
14	17	-0.04	-0.38	0.58	-0.32	-0.08	-9.56	253.19	2.87	16.66	29807.35	
14	17	0.14	-0.38	0.59	-0.35	-0.01	-9.50	252.82	2.90	16.71	29781.87	
14	17	-0.07	-0.47	0.47	-0.22	-0.11	-9.46	253.18	2.88	16.66	29799.62	
14	17	2.13	-0.52	0.61	-0.32	-0.09	-9.56	253.49	2.88	16.67	29799.62	
14	17	0.06	-0.32	0.74	-0.25	-0.08	-9.55	252.64	2.89	16.66	29789.56	
14	17	-0.13	-0.38	0.59	-0.25	-0.09	-9.60	252.96	2.90	16.70	29778.61	
14	18	-0.25	-0.38	0.49	-0.20	-0.11	-9.58	253.03	2.92	16.73	29766.29	
14	18	-0.04	-0.52	0.57	-0.21	-0.10	-9.60	253.43	2.88	16.65	29804.07	
14	18	-0.17	-0.37	0.32	-0.24	-0.06	-9.58	253.61	2.88	16.66	29801.96	
14	18	-0.26	-0.38	0.39	-0.22	-0.11	-9.60	253.57	2.86	16.62	29823.35	
14	18	-0.15	-0.36	0.31	-0.24	-0.08	-9.58	252.96	2.89	16.67	29794.00	
14	18	-0.07	-0.19	0.53	-0.23	-0.10	-9.51	253.08	2.87	16.64	29810.88	
14	18	-0.12	-0.18	0.34	-0.26	-0.11	-9.57	253.42	2.88	16.66	29801.96	
14	18	-0.11	-0.38	0.60	-0.22	-0.11	-9.47	253.53	2.91	16.68	29777.68	
14	19	-0.11	-0.17	0.67	-0.28	-0.11	-9.57	253.01	2.87	16.69	29815.11	
14	19	-0.15	-0.27	0.65	-0.23	-0.08	-9.59	253.03	2.88	16.66	29803.13	
14	19	-0.16	-0.55	0.43	-0.23	-0.11	-9.53	253.30	2.87	16.65	29808.53	
14	19	-0.09	-0.42	0.64	-0.22	-0.07	-9.58	253.72	2.87	16.64	29815.11	
14	19	-0.27	-0.48	0.63	-0.22	-0.08	-9.55	253.18	2.86	16.63	29817.46	
14	19	-0.03	-0.28	0.36	-0.24	-0.06	-9.58	253.20	2.87	16.64	29813.23	
14	19	-0.03	-0.32	0.40	-0.23	-0.07	-9.58	253.10	2.85	16.60	29832.09	
14	20	-0.06	-0.45	0.46	-0.21	-0.07	-9.55	253.62	2.85	16.61	29826.42	
14	20	-0.05	-0.39	0.64	-0.25	-0.09	-9.58	253.44	2.86	16.63	29819.81	
14	20	-0.09	-0.30	0.51	-0.23	-0.10	-9.58	253.91	2.88	16.65	29805.24	
14	20	-0.16	-0.31	0.57	-0.24	-0.09	-9.56	253.14	2.86	16.63	29816.52	
14	20	0.00	-0.36	0.65	-0.22	-0.03	-9.66	253.11	2.87	16.60	29814.17	
14	20	-0.07	-0.36	0.56	-0.22	-0.10	-9.60	253.39	2.85	16.63	29833.04	
14	20	-0.11	-0.76	0.85	-0.23	-0.06	-9.55	252.71	2.87	16.57	29814.17	
14	21	1.88	-0.54	0.80	-0.26	-0.06	-9.57	253.12	2.87	16.59	29814.17	
14	21	0.06	-0.39	0.43	-0.25	-0.09	-9.59	253.44	2.84	16.58	29844.40	
14	21	-0.19	-0.31	0.44	-0.25	-0.09	-9.60	253.61	2.93	16.56	29755.18	
14	21	-0.31	-0.30	0.28	-0.22	-0.10	-9.52	254.02	6.84	16.52	27200.45	
14	21	-0.25	-0.31	0.35	-0.23	-0.09	-9.55	253.67	11.14	16.50	25536.43	
14	21	-1.24	-0.50	0.17	-0.20	-0.11	-9.53	253.56	15.35	16.45	24354.62	
14	22	0.80	-0.36	0.28	-0.27	-0.11	-9.60	253.17	19.34	16.48	23456.44	
14	22	-0.29	-0.31	0.26	-0.24	-0.08	-9.58	252.98	23.82	16.48	22612.86	
14	22	-0.36	-0.38	0.30	-0.24	-0.11	-9.58	253.97	28.25	16.44	21896.64	
14	23	-0.01	-0.58	0.41	-0.25	-0.08	-9.56	254.03	32.53	16.42	21286.42	
14	23	0.22	-0.40	0.26	-0.25	-0.11	-9.53	252.99	36.62	16.37	20760.95	
14	23	0.06	-0.43	0.58	-0.25	-0.11	-9.62	253.25	40.70	16.39	20283.32	
14	24	-0.29	-0.21	0.88	-0.21	-0.08	-9.62	253.14	45.03	16.36	19815.95	
14	24	0.06	-0.48	1.41	-0.25	-0.07	-9.56	253.70	49.38	16.30	19381.93	
14	25	-0.23	-0.25	0.27	-0.24	-0.08	-9.61	253.26	53.62	16.35	18988.12	
14	25	-2.22	-0.37	0.60	-0.22	-0.08	-9.57	252.94	57.67	16.33	18634.66	
14	25	0.04	-0.29	0.11	-0.24	-0.10	-9.55	252.73	62.05	16.32	18273.96	
14	23	-0.24	-0.33	0.36	-0.23	-0.09	-9.60	253.51	66.31	16.31	17942.80	
14	24	-0.01	-0.47	0.62	-0.21	-0.08	-9.63	252.69	70.81	16.32	17610.98	
14	24	0.00	-0.49	0.52	-0.23	-0.11	-9.59	252.95	75.07	16.34	17312.07	
14	25	0.01	-0.35	0.06	-0.23	-0.09	-9.62	253.34	79.13	16.30	17040.49	
14	25	-0.15	-0.46	0.41	-0.22	-0.11	-9.62	253.31	83.41	16.29	16765.49	
14	26	-0.05	-0.38	1.11	-0.22	-0.09	-9.62	253.32	87.56	16.26	16509.51	
14	26	0.52	-0.44	0.67	-0.23	-0.08	-9.60	253.53	91.65	16.27	16267.01	
14	27	0.52	-0.17	0.47	-0.22	-0.10	-9.55	253.47	95.72	16.24	16033.76	
14	27	-0.14	-0.60	0.52	-0.25	-0.09	-9.60	252.36	100.12	16.28	15790.90	
14	27	0.04	-0.59	0.41	-0.27	-0.07	-9.59	252.36	104.30	16.21	15567.60	
14	28	-0.08	-0.18	0.46	-0.24	-0.06	-9.62	252.70	108.49	16.21	15351.54	
14	28	-0.17	-0.48	0.37	-0.24	-0.09	-9.54	253.02	112.90	16.23	15131.00	
14	29	-0.04	-0.26	0.20	-0.23	-0.08	-9.61	253.17	117.06	16.19	14929.02	
14	29	-0.10	-0.33	0.25	-0.25	-0.11	-9.59	253.21	121.33	16.16	14727.96	
14	30	-0.40	-0.29	0.29	-0.23	-0.11	-9.59	253.18	125.60	16.20	14532.87	
14	30	-0.15	-0.62	0.44	-0.23	-0.08	-9.61	252.93	129.77	16.17	14347.02	
14	31	-0.40	-0.46	0.53	-0.22	-0.10	-9.60	253.11	134.03	16.18	14162.13	
14	31	-0.50	-0.41	0.46	-0.20	-0.07	-9.60	253.12	138.35	16.19	13979.49	
14	32	-0.25	-0.33	0.21	-0.25	-0.11	-9.62	253.32	142.69	16.19	13800.74	
14	32	-0.45	-0.39	0.52	-0.27	-0.06	-9.62	253.17	146.65	16.17	13641.17	
14	32	-0.38	-0.55	0.43	-0.23	-0.09	-9.57	253.15	150.83	16.15	13476.59	
14	33	0.08	-0.51	0.58	-0.23	-0.11	-9.64	252.70	155.18	16.17	13309.14	
14	34	0.38	-0.32	1.01	-0.23	-0.08	-9.65	252.89	159.71	16.17	13138.79	
14	34	0.06	-0.58	0.49	-0.24	-0.11	-9.64	252.77	164.00	16.15	12981.34	
14	34	-0.02	-0.30	0.71	-0.23	-0.11	-9.62	252.26	168.17	16.12	12831.26	
14	35	-0.57	-0.25	0.70	-0.23	-0.10	-9.59	252.23	172.28	16.14	12686.04	
14	35	-0.46	-0.64	0.52	-0.25	-0.08	-9.61	252.46	176.81	16.12	12529.24	
14	36	-0.28	-0.17	0.37	-0.23	-0.13	-9.49	253.14	181.42	16.14	12373.33	
14	36	-0.63	-0.06	0.10	-0.22	-0.10	-9.62	253.24	185.69	16.13	12231.64	
14	37	0.30	-0.46	0.82	-0.24	-0.09	-9.60	252.84	190.02	16.13	12090.50	
15	37	0.38	-0.36	0.81	-0.21	-0.09	-9.56	253.46	194.14	16.14	11958.66	
15	37	-0.38	-0.24	0.41	-0.20	-0.08	-9.60	252.63	198.52	16.14	11820.84	
15	38	0.16	-0.38	0.81	-0.21	-0.09	-9.64	252.61	203.09	16.17	11679.94	
15	38	-0.60	-0.27	0.24	-0.24	-0.11	-9.58	253.34	207.15	16.16	11556.65	
15	38	0.07	-0.46	0.51	-0.24	-0.09	-9.55	252.93	211.40	16.17	11429.59	
15	38	-0.14	-0.32	0.45	-0.23	-0.09	-9.59	253.19	215.65	16.19	11304.86	
15	38	-0.41	-0.24	0.43	-0.20	-0.11	-9.56	252.89	219.92	16.15	11181.32	
15	38	0.17	-0.43	0.85	-0.25	-0.06	-9.60	252.83	224.29	16.17	11056.99	
15	38	-0.63	-0.44	0.56	-0.23	-0.10	-9.60	253.15	228.65	16.21	10935.06	
15	38	-0.02	-0.17	0.17	-0.23	-0.12	-9.59	252.71	232.81	16.14	10820.25	
15	38	-0.64	-0.60	0.40	-0.24	-0.05	-9.64	253.04	237.10	16.17	10703.54	
15	38	-0.02	-0.60	0.78	-0.25	-0.10	-9.59	253.25	241.37	16.17	10589.29	
15	38	-0.30	-0.26	0.09	-0.22	-0.09	-9.59	253.05	245.93	16.18	10468.80	
15	38	-0.26	-0.34	0.48	-0.23	-0.11	-9.70	252.99	250.19	16.18	10358.15	
15	38	-0.64	-0.46	0.01	-0.21	-0.08	-9.64	253.13	254.43	16.18	10249.29	
15	38	-0.26	-0.47	0.05	-0.22	-0.10	-9.62	252.89	258.63	16.17	10143.00	
15	38	0.18	-0.22	0.80	-0.24	-0.07	-9.56	252.68	262.73	16.20	10040.37	
15	39	-0.28	-0.41	0.65	-0.23	-0.12	-9.62	252.97	264.79	16.15	9989.51	
15	39	-0.30	-0.44	0.62	-0.24	-0.10	-9.60	252.33	264.51	16.20	9996.31	
15	39	-0.09	-0.47	0.34	-0.25	-0.10	-9.63	252.48	264.29	16.20	10001.86	
15	38	-0.16	-0.36	0.46	-0.25	-0.06	-9.69	252.79	264.10	16.16	10006.45	
15	38	-0.25	-0.45	0.50	-0.25	-0.08	-9.57	253.02	263.99	16.16	10009.16	
15	38	-0.16	-0.26	0.23	-0.25	-0.07	-9.60	253.49	263.90	16.16	10011.38	
15	38	0.05	-0.53	0.31	-0.22	-0.08	-9.60	253.20	263.79	16.17	10014.05	
15	38	-0.13	-0.46	0.38	-0.22	-0.07	-9.62	253.26	263.73	16.17	10015.70	
15	37	0.03	-0.31	0.40	-0.23	-0.07	-9.65	252.89	263.54	16.11	10020.35	
15	37	-0.02	-0.41	0.42	-0.26	-0.08	-9.60	252.84	263.57	16.18	10019.68	
15	37	0.06	-0.30	0.41	-0.21	-0.08	-9.57	252.66	263.50	16.18	10021.32	
15	37	-0.16	-0.04	0.38	-0.25	-0.09	-9.55	252.81	263.43	16.14	10023.12	
15	37	-0.02	-0.34	0.25	-0.25	-0.08	-9.64	252.97	263.43	16.17	10023.08	
15	36	-0.26	-0.52	0.28	-0.24	-0.11	-9.62	253.50	263.41	16.14	10023.54	
15	36	-0.09	-0.52	0.42	-0.24	-0.08	-9.62	252.65	263.33	16.18	10025.51	
15	36	0.01	-0.11	0.38	-0.26	-0.10	-9.58	253.04	263.36	16.16	10024.70	
15	36	0.12	-0.24	0.38	-0.23	-0.12	-9.51	252.69	263.35	16.19	10025.07	
15	36	-0.21	-0.58	0.51	-0.25	-0.07	-9.62	253.17	263.32	16.18	10025.76	
15	36	-0.26	-0.16	0.49	-0.21	-0.09	-9.55	252.98	263.30	16.18	10026.38	
15	36	-0.03	-0.32	0.37	-0.23	-0.07	-9.56	252.84	263.23	16.14	10027.98	
15	36	-0.34	-0.38	0.12	-0.22	-0.09	-9.59	253.34	263.28	16.16	10026.70	
15	35	-0.25	-0.55	0.41	-0.23	-0.07	-9.50	252.99	263.30	16.20	10026.26	
15	35	-0.24	-0.27	0.13	-0.20	-0.08	-9.59	252.96	263.25	16.16	10027.64	
15	35	-0.33	-0.04	0.36	-0.21	-0.11	-9.64	252.82	263.28	16.19	10026.72	
15	35	-0.11	-0.47	0.80	-0.25	-0.08	-9.61	253.23	263.18	16.14	10029.23	
15	35	-0.29	-0.54	0.67	-0.24	-0.11	-9.60	252.93	263.20	16.19	10028.75	
14	35	-0.20	-0.38	0.46	-0.25	-0.07	-9.61	253.03	263.21	16.19	10028.57	
14	35	-0.24	-0.59	0.58	-0.23	-0.07	-9.62	253.18	263.18	16.16	10029.39	
14	35	0.01	-0.27	0.24	-0.24	-0.10	-9.63	252.74	263.18	16.16	10029.32	
14	35	0.07	-0.44	0.55	-0.23	-0.08	-9.60	253.12	263.20	16.19	10028.66	
14	35	-0.24	-0.67	0.66	-0.21	-0.09	-9.59	253.18	263.18	16.16	10029.36	
14	35	-0.17	-0.29	0.49	-0.22	-0.09	-9.62	253.21	263.12	16.16	10030.86	
14	35	-0.06	-0.39	0.25	-0.20	-0.08	-9.61	252.97	263.19	16.17	10029.14	
14	35	-0.10	-0.41	0.44	-0.22	-0.11	-9.52	252.88	263.17	16.20	10029.46	
14	35	-0.20	-0.31	0.67	-0.26	-0.09	-9.51	253.38	263.16	16.19	10029.67	
14	35	-0.10	-0.51	0.70	-0.25	-0.08	-9.61	252.68	263.09	16.17	10031.45	
14	34	-0.25	-0.47	0.62	-0.21	-0.11	-9.59	252.80	263.11	16.19	10031.08	
14	34	-0.18	-0.38	0.51	-0.25	-0.06	-9.56	253.04	263.10	16.19	10031.17	
14	34	0.00	-0.18	0.51	-0.22	-0.11	-9.61	253.09	263.10	16.21	10031.18	
14	34	-0.11	-0.34	0.36	-0.23	-0.11	-9.61	253.19	263.13	16.22	10030.44	
14	34	-0.35	-0.32	0.76	-0.24	-0.07	-9.60	252.77	263.06	16.17	10032.17	
14	34	-0.20	-0.38	0.12	-0.24	-0.13	-9.60	252.65	263.07	16.20	10032.11	
14	34	-0.17	-0.46	0.28	-0.24	-0.11	-9.58	253.00	263.13	16.22	10030.39	
14	34	0.06	-0.36	0.50	-0.23	-0.11	-9.62	252.50	263.12	16.21	10030.79	
14	34	-0.14	-0.59	0.47	-0.20	-0.09	-9.62	252.45	263.10	16.22	10031.17	
14	34	-0.36	-0.44	0.51	-0.24	-0.06	-9.63	253.06	263.10	16.21	10031.14	
14	34	-0.14	-0.40	0.63	-0.23	-0.11	-9.62	253.38	263.02	16.18	10033.15	
14	34	-0.17	-0.36	0.42	-0.23	-0.07	-9.62	253.09	263.11	16.21	10031.09	
14	34	-0.01	-0.58	0.59	-0.23	-0.11	-9.60	252.47	263.02	16.19	10033.18	
14	35	0.01	-0.32	0.44	-0.22	-0.11	-9.58	253.41	263.10	16.24	10031.14	
14	34	0.02	-0.27	0.55	-0.24	-0.07	-9.59	253.07	263.10	16.22	10031.34	
14	34	-0.11	-0.05	0.43	-0.24	-0.09	-9.58	252.49	263.14	16.22	10030.36	
14	34	-0.25	-0.46	0.60	-0.24	-0.11	-9.60	252.73	263.07	16.28	10031.92	
14	35	-0.33	-0.38	0.25	-0.23	-0.12	-9.58	252.79	263.12	16.24	10030.79	
14	34	-0.01	-0.25	0.48	-0.24	-0.11	-9.53	253.05	263.03	16.23	10033.06	
14	34	-0.19	-0.28	0.85	-0.22	-0.09	-9.59	252.95	263.07	16.23	10031.89	
14	34	-0.08	-0.23	0.52	-0.06	-0.01	-9.47	252.96	257.97	16.23	10159.49	
14	35	-0.04	-0.38	0.63	-0.23	-0.07	-9.81	253.35	239.88	16.23	10628.92	
14	34	-0.02	-0.45	0.60	-0.43	-0.14	-9.67	252.91	224.04	16.21	11064.26	
14	34	0.02	-0.56	0.41	-0.15	-0.07	-9.46	252.97	209.99	16.21	11471.58	
14	34	-0.15	-0.39	0.65	-0.12	-0.01	-9.56	252.43	197.26	16.27	11860.08	
14	34	-0.12	-0.25	0.41	-0.12	-0.09	-9.58	252.92	185.89	16.19	12224.87	
14	34	-0.10	-0.42	0.33	-0.17	-0.07	-9.59	253.42	175.40	16.23	12577.88	
14	34	-0.09	-0.43	0.27	-0.07	-0.08	-9.60	253.21	165.90	16.22	12912.57	
14	34	-0.23	-0.57	0.26	-0.20	-0.09	-9.70	253.32	157.00	16.17	13240.19	
14	34	-0.07	-0.27	0.48	-0.26	-0.04	-9.64	252.81	148.51	16.19	13567.42	
14	34	0.14	-0.37	0.54	-0.11	-0.06	-9.64	252.72	141.03	16.21	13868.26	
14	34	-0.30	-0.28	0.45	-0.20	-0.06	-9.56	253.44	133.49	16.21	14185.19	
14	33	-0.06	-0.38	0.30	-0.21	-0.06	-9.46	252.47	126.55	16.18	14489.84	
14	33	-0.18	-0.45	0.48	-0.23	-0.09	-9.55	253.14	119.89	16.21	14795.48	
14	33	-0.13	-0.68	0.73	-0.30	-0.12	-9.59	252.58	113.61	16.21	15095.92	
14	33	-0.36	-0.25	0.68	-0.28	-0.11	-9.61	252.88	107.45	16.20	15404.76	
14	32	-0.06	-0.56	0.46	-0.28	-0.11	-9.81	252.73	101.82	16.19	15699.26	
14	32	-0.39	-0.31	0.54	-0.12	-0.03	-9.50	252.77	96.34	16.20	15999.15	
14	32	-0.26	-0.38	0.48	-0.30	-0.08	-9.58	253.61	91.29	16.15	16287.93	
14	31	-0.23	-0.48	0.67	-0.23	-0.11	-9.81	252.76	86.46	16.18	16576.05	
14	31	-0.04	-0.29	0.68	-0.23	-0.11	-9.63	252.75	81.88	16.18	16862.06	
14	31	-0.09	-0.52	0.38	-0.12	-0.05	-9.54	253.14	77.53	16.17	17146.37	
14	30	0.15	-0.36	0.59	-0.29	-0.12	-9.71	253.27	73.38	16.19	17429.27	
14	30	-0.16	-0.16	0.54	-0.15	-0.07	-9.51	252.52	69.61	16.17	17697.68	
14	30	0.18	-0.23	0.56	-0.40	-0.10	-9.61	252.99	65.69	16.15	17989.56	
14	30	-0.27	-0.52	0.47	-0.07	-0.17	-9.37	252.55	62.21	16.15	18261.04	
14	29	0.05	-0.39	0.48	-0.20	-0.09	-9.61	252.80	58.83	16.15	18537.24	
14	29	-0.35	-0.58	0.88	-0.20	-0.16	-9.66	252.85	55.70	16.14	18803.50	
14	29	-0.14	-0.39	0.44	-0.36	-0.13	-9.48	252.81	52.64	16.11	19076.71	
14	28	0.01	-0.56	0.58	-0.16	-0.09	-9.48	252.86	49.88	16.14	19333.76	
14	28	-0.03	-0.31	0.52	-0.20	-0.01	-9.49	252.90	47.13	16.11	19602.49	
14	28	-0.21	-0.27	0.89	-0.11	-0.12	-9.61	252.92	44.54	16.12	19866.42	
14	27	-0.04	-0.30	0.30	-0.17	-0.01	-9.62	253.07	42.15	16.10	20122.53	
14	27	-0.17	-0.49	0.38	-0.20	-0.07	-9.61	252.81	39.86	16.13	20378.59	
14	27	-0.13	-0.49	0.37	-0.17	-0.11	-9.67	253.42	37.69	16.10	20631.71	
14	27	-0.04	-0.17	0.42	-0.15	-0.11	-9.74	253.16	35.55	16.11	20894.25	
14	26	-0.24	-0.51	0.46	-0.13	-0.10	-9.69	253.05	33.74	16.05	21126.01	
14	26	-0.31	-0.40	0.45	-0.29	-0.15	-9.56	252.90	31.94	16.09	21366.74	
14	26	-0.04	-0.29	0.49	-0.17	-0.09	-9.64	252.95	29.95	16.07	21646.31	
14	26	-0.05	-0.17	0.60	-0.21	-0.09	-9.50	252.66	28.43	16.06	21869.53	
14	25	-0.05	-0.67	0.42	-0.33	-0.14	-9.55	253.05	26.91	16.08	22102.92	
14	25	-0.07	-0.48	0.10	-0.33	-0.11	-9.63	253.02	25.48	16.07	22333.86	
14	25	-0.12	-0.19	0.50	-0.14	-0.11	-9.55	253.40	23.83	16.03	22612.01	
14	25	0.03	-0.38	0.32	-0.21	-0.10	-9.63	253.33	22.47	16.04	22852.25	
14	25	-0.15	-0.62	0.54	-0.20	-0.02	-9.52	253.18	21.22	16.06	23086.42	
14	24	-0.02	-0.55	0.53	-0.24	-0.12	-9.51	253.11	20.02	16.03	23320.40	
14	24	0.19	-0.48	0.56	-0.23	-0.12	-9.73	253.13	18.79	16.04	23570.75	
14	24	-0.08	-0.31	0.38	-0.22	-0.20	-9.47	252.79	17.78	16.04	23789.08	
14	24	-0.13	-0.31	0.71	-0.28	-0.02	-9.73	252.70	16.84	16.00	24000.05	
14	24	-0.19	-0.21	0.57	-0.23	-0.11	-9.55	252.56	15.93	16.08	24214.79	
14	23	-0.17	-0.53	0.37	-0.28	-0.16	-9.79	252.93	14.91	15.99	24464.76	
14	23	-0.27	-0.45	0.46	-0.27	-0.11	-9.59	252.27	14.09	16.00	24677.28	
14	25	-0.01	-0.51	0.46	-0.20	-0.11	-9.59	252.78	13.24	16.00	24910.12	
14	25	0.03	-0.51	0.67	-0.32	-0.08	-9.53	253.25	12.54	16.01	25110.26	
14	25	-0.16	-0.39	0.61	-0.18	-0.13	-9.58	253.04	11.88	16.00	25305.23	
14	25	-0.04	-0.33	0.41	-0.29	-0.05	-9.56	253.16	11.18	15.97	25524.45	
14	25	-0.02	-0.31	0.58	-0.18	-0.08	-9.58	253.08	10.47	15.99	25758.34	
14	25	-0.07	-0.25	0.46	-0.33	-0.06	-9.60	253.60	9.85	15.96	25973.75	
14	24	-0.14	-0.36	0.58	-0.10	-0.05	-9.43	253.30	9.30	15.99	26173.18	
14	24	-0.23	-0.20	0.33	-0.18	-0.12	-9.45	253.03	8.71	15.99	26397.86	
14	24	-0.42	-0.52	0.55	-0.21	-0.03	-9.71	251.35	8.13	16.00	26629.44	
14	24	-0.17	-0.46	0.44	-0.25	-0.12	-9.62	252.59	7.77	16.02	26783.01	
14	24	-0.11	-0.38	0.30	-0.27	-0.01	-9.58	253.16	7.33	15.97	26976.36	
14	24	-0.05	-0.46	0.32	-0.26	-0.10	-9.48	252.45	6.90	15.97	27176.00	
14	24	0.24	-0.45	0.49	-0.25	-0.08	-9.55	252.31	6.53	16.00	27351.72	
14	24	1.80	-0.60	0.60	-0.26	-0.01	-9.63	252.91	6.09	15.95	27575.58	
14	24	-0.17	-0.56	0.54	-0.14	-0.14	-9.48	253.08	5.76	15.99	27755.54	
14	24	-0.11	-0.27	0.40	-0.19	-0.17	-9.64	252.98	5.44	15.99	27934.41	
14	24	0.03	-0.62	0.24	-0.28	-0.16	-9.42	252.54	5.10	15.95	28134.52	
14	24	-0.04	-0.49	0.52	-0.25	-0.08	-9.82	253.40	4.85	15.97	28289.50	
14	24	-0.04	-0.38	0.41	-0.18	-0.11	-9.51	253.40	4.51	15.95	28509.38	
14	24	-0.16	-0.26	0.47	-0.13	-0.13	-9.58	252.26	4.27	15.95	28668.46	
14	24	0.07	-0.40	0.36	-0.31	-0.07	-9.58	252.59	3.97	15.97	28888.93	
14	23	-0.14	-0.32	0.49	-0.28	-0.09	-9.68	252.72	3.81	15.96	29006.90	
14	24	0.05	-0.54	0.34	-0.28	-0.13	-9.62	253.40	3.54	15.98	29217.12	
14	24	-0.06	-0.46	0.38	-0.09	-0.12	-9.60	252.61	3.32	15.97	29401.53	
14	24	0.00	-0.56	0.33	-0.44	-0.12	-9.71	252.25	3.13	16.00	29566.07	
14	24	-0.37	-0.33	0.25	-0.23	-0.02	-9.64	252.88	2.94	15.97	29742.03	
14	24	-0.02	-0.52	0.58	-0.28	-0.12	-9.81	252.35	2.78	15.98	29897.01	
14	24	-0.02	-0.37	0.37	-0.08	-0.11	-9.57	252.63	2.72	15.96	29963.20	
14	24	-0.25	-0.53	0.33	-0.34	-0.08	-9.61	252.65	2.63	15.95	30052.09	
14	24	0.04	-0.17	0.31	-0.28	-0.01	-9.43	252.78	2.58	15.98	30101.91	
14	24	-0.09	-0.52	0.67	-0.24	-0.17	-9.63	252.75	2.55	16.01	30138.48	
14	24	-0.10	-0.37	0.94	-0.22	-0.02	-9.60	252.62	2.53	15.99	30160.82	
14	24	-0.28	-0.30	0.60	-0.12	-0.07	-9.50	252.57	2.51	15.99	30174.14	
14	24	0.08	-0.31	0.52	-0.39	-0.04	-9.74	253.08	2.52	16.00	30170.74	
14	24	0.01	-0.33	0.43	-0.14	-0.11	-9.59	252.94	2.54	16.04	30150.15	
14	24	-0.18	-0.41	0.41	-0.32	-0.08	-9.65	252.44	2.53	16.03	30151.45	
14	25	-0.26	-0.32	0.41	-0.06	-0.02	-9.53	253.03	2.53	16.02	30157.96	
14	25	0.08	-0.27	0.09	-0.44	-0.20	-9.73	253.05	2.54	16.05	30141.85	
14	25	-0.05	-0.38	0.26	-0.14	-0.05	-9.47	252.77	2.53	16.05	30151.97	
14	25	-0.21	-0.52	0.60	-0.28	-0.14	-9.63	252.99	2.53	16.03	30150.94	
14	25	-0.02	-0.35	0.52	-0.15	-0.04	-9.42	252.52	2.53	16.04	30155.61	
14	25	-0.17	-0.24	0.45	-0.27	-0.20	-9.70	252.84	2.54	16.02	30139.78	
14	25	-0.12	-0.34	0.57	-0.26	-0.06	-9.54	252.95	2.54	16.06	30149.37	
14	25	-0.31	-0.38	0.39	-0.13	-0.05	-9.74	252.84	2.52	16.09	30161.86	
14	23	0.13	-0.31	0.63	-0.12	-0.01	-9.39	252.92	2.53	16.04	30150.94	
14	23	-0.11	-0.52	0.53	-0.29	-0.17	-9.63	252.87	2.53	16.03	30153.01	
14	24	-0.26	-0.44	0.52	-0.24	-0.03	-9.63	252.93	2.54	16.06	30139.78	
14	24	-0.04	-0.38	0.48	-0.28	-0.10	-9.73	252.28	2.54	16.05	30144.44	
14	24	-0.25	-0.39	0.39	-0.29	-0.08	-9.58	252.79	2.56	16.08	30124.79	
14	24	-0.20	-0.43	0.52	-0.24	-0.01	-9.52	253.08	2.55	16.06	30135.89	
14	24	-0.21	-0.35	0.21	-0.18	-0.13	-9.69	252.77	2.56	16.09	30120.15	
14	24	-0.21	-0.56	0.32	-0.18	-0.10	-9.38	253.25	2.55	16.06	30138.48	
14	24	-0.17	-0.41	0.31	-0.31	-0.24	-9.63	252.42	2.57	16.10	30110.38	
14	25	-0.31	-0.25	0.54	-0.21	-0.06	-9.66	252.86	2.58	16.14	30107.81	
14	25	0.04	-0.42	0.25	-0.20	-0.05	-9.39	253.05	2.58	16.12	30103.20	
14	25	-0.13	-0.46	0.41	-0.25	-0.07	-9.60	252.88	2.57	16.10	30111.66	
14	25	0.03	-0.36	0.42	-0.25	-0.10	-9.38	253.10	2.61	16.12	30072.85	
14	25	-0.02	-0.58	0.65	-0.28	-0.21	-9.71	252.25	2.58	16.13	30103.20	
14	25	-0.17	-0.25	0.74	-0.13	-0.04	-9.70	252.83	2.60	16.15	30083.78	
14	25	-0.09	-0.52	0.49	-0.44	-0.15	-9.58	252.50	2.60	16.15	30083.78	
14	25	-0.11	-0.16	0.50	-0.33	-0.10	-9.64	252.32	2.59	16.13	30094.49	
14	26	0.03	-0.41	0.81	-0.18	-0.05	-9.55	252.90	2.61	16.17	30075.13	
14	26	-0.26	-0.40	0.65	-0.33	-0.16	-9.76	252.49	2.61	16.16	30076.40	
14	26	-0.05	-0.17	0.43	-0.14	-0.05	-9.54	252.65	2.60	16.17	30083.78	
14	26	-0.05	-0.35	0.26	-0.33	-0.16	-9.59	252.86	2.63	16.19	30053.61	
14	26	-0.17	-0.59	0.47	-0.22	-0.04	-9.61	252.81	2.63	16.19	30052.34	
14	26	0.18	-0.22	0.60	-0.35	-0.11	-9.67	253.00	2.63	16.21	30055.88	
14	26	-0.16	-0.22	0.56	-0.09	-0.05	-9.57	253.21	2.63	16.17	30049.82	
14	26	-0.10	-0.33	0.61	-0.24	-0.12	-9.62	253.19	2.62	16.15	30058.15	
14	26	-0.04	-0.30	0.52	-0.25	-0.04	-9.51	252.91	2.64	16.23	30039.25	
14	26	-0.12	-0.21	0.39	-0.33	-0.13	-9.74	252.65	2.62	16.20	30057.14	
14	26	-0.09	-0.46	0.54	-0.32	-0.09	-9.40	253.30	2.64	16.22	30045.29	
14	26	-0.25	-0.50	0.62	-0.22	-0.16	-9.55	252.49	2.63	16.20	30054.87	
14	26	-0.05	-0.47	0.51	-0.33	-0.13	-9.51	252.66	2.62	16.18	30065.49	
14	26	-0.08	-0.51	0.25	-0.20	-0.05	-9.37	252.56	2.63	16.20	30055.88	
14	26	-0.31	-0.49	0.68	-0.13	-0.08	-9.74	253.44	2.66	16.26	30020.20	
14	26	-0.13	-0.34	0.47	-0.22	-0.06	-9.46	253.09	2.65	16.25	30027.21	
14	26	0.15	-0.45	0.45	0.02	-0.08	-9.49	253.03	2.66	16.24	30024.96	
14	26	-0.22	-0.38	0.52	-0.25	-0.15	-9.84	252.48	2.65	16.24	30032.22	
14	26	-0.05	-0.46	0.20	-0.22	-0.09	-9.49	252.73	2.64	16.25	30041.51	
14	26	0.05	-0.22	0.46	-0.17	-0.08	-9.66	252.34	2.65	16.28	30026.20	
14	26	-0.25	-0.25	0.45	-0.33	-0.12	-9.81	253.09	2.64	16.26	30036.74	
14	26	-0.36	-0.51	0.12	-0.20	-0.10	-9.39	252.47	2.66	16.25	30017.70	
14	26	-0.07	-0.45	0.35	-0.32	-0.11	-9.59	252.47	2.68	16.30	30001.26	
14	26	-0.11	-0.33	0.38	-0.30	-0.08	-9.45	252.55	2.66	16.26	30023.95	
14	26	-0.06	-0.48	0.46	-0.14	-0.10	-9.49	253.13	2.66	16.26	30018.95	
14	26	-0.21	-0.47	0.70	-0.40	-0.07	-9.71	252.10	2.66	16.26	30021.45	
14	26	0.15	-0.64	0.60	-0.16	-0.03	-9.41	252.52	2.66	16.27	30016.70	
14	25	-0.39	-0.44	0.52	-0.35	-0.10	-9.56	252.87	2.68	16.30	30000.02	
14	25	-0.27	-0.46	0.31	-0.06	-0.05	-9.53	252.87	2.67	16.29	30004.99	
14	25	0.09	-0.52	0.67	-0.27	-0.20	-9.69	252.72	2.67	16.28	30009.47	
14	25	0.08	-0.49	0.58	-0.22	-0.08	-9.49	252.63	2.67	16.30	30010.72	
14	25	-0.11	-0.52	0.23	-0.24	-0.11	-9.52	252.39	2.67	16.27	30008.47	
14	24	-0.02	-0.37	0.42	-0.13	-0.06	-9.49	252.53	2.69	16.31	29993.07	
14	24	0.08	-0.25	0.66	-0.26	-0.15	-9.54	253.23	2.67	16.30	30009.47	
14	24	-0.26	-0.45	0.56	-0.23	-0.05	-9.62	253.28	2.69	16.29	29994.31	
14	24	-0.05	-0.34	0.37	-0.32	-0.12	-9.67	253.09	2.68	16.30	30003.50	
14	24	-0.15	-0.27	0.51	-0.18	-0.05	-9.53	252.65	2.69	16.33	29984.65	
14	24	-0.23	-0.32	0.62	-0.27	-0.09	-9.64	252.77	2.68	16.30	30000.02	
14	24	-0.15	-0.54	0.38	-0.36	-0.08	-9.66	253.19	2.71	16.35	29971.81	
14	23	-0.02	-0.48	0.38	-0.27	-0.05	-9.59	252.82	2.71	16.35	29973.04	
14	23	-0.20	-0.48	0.54	-0.24	-0.26	-9.73	252.83	2.69	16.32	29986.13	
14	25	0.23	-0.32	0.45	-0.11	-0.10	-9.52	252.93	2.70	16.33	29983.66	
14	25	-0.23	-0.52	0.83	-0.34	-0.16	-9.52	252.41	2.71	16.35	29968.37	
14	25	0.18	-0.30	0.57	-0.32	-0.01	-9.46	252.45	2.72	16.37	29960.25	
14	25	-0.25	-0.42	0.67	-0.32	-0.07	-9.61	252.55	2.70	16.36	29976.50	
14	25	0.12	-0.43	0.48	-0.26	-0.05	-9.50	253.04	2.72	16.35	29961.23	
14	25	-0.04	-0.34	0.45	-0.09	-0.06	-9.39	252.69	2.70	16.35	29975.51	
14	24	-0.17	-0.33	0.30	-0.24	-0.12	-9.68	253.26	2.71	16.32	29973.04	
14	24	-0.19	-0.38	0.26	-0.32	-0.08	-9.33	252.48	2.72	16.34	29960.25	
14	24	-0.09	-0.46	0.54	-0.13	-0.16	-9.60	252.54	2.70	16.35	29974.28	
14	24	-0.03	-0.36	0.61	-0.35	-0.06	-9.81	252.41	2.69	16.32	29986.13	
14	24	-0.05	-0.40	0.44	-0.17	-0.16	-9.46	252.95	2.70	16.33	29983.66	
14	24	-0.04	-0.31	0.29	-0.15	-0.11	-9.62	252.68	2.72	16.36	29963.69	
14	24	-0.17	-0.18	0.55	-0.35	-0.05	-9.71	253.08	2.71	16.36	29967.38	
14	23	-0.19	-0.27	0.66	-0.14	-0.11	-9.44	253.00	2.71	16.35	29970.83	
14	23	0.15	-0.21	0.38	-0.26	-0.11	-9.49	252.51	2.70	16.34	29977.98	
14	23	-0.11	-0.56	0.57	-0.10	-0.03	-9.56	252.54	2.71	16.35	29970.83	
14	23	0.04	-0.31	0.54	-0.27	-0.01	-9.52	252.74	2.72	16.38	29956.82	
14	23	0.06	-0.31	0.26	-0.22	-0.18	-9.64	252.85	2.72	16.40	29961.23	
14	23	-0.04	-0.25	0.73	-0.34	-0.01	-9.59	253.00	2.72	16.38	29960.25	
14	23	-0.25	-0.44	0.51	-0.27	-0.13	-9.62	252.61	2.72	16.37	29959.27	
14	23	0.00	-0.31	0.62	-0.08	-0.16	-9.44	252.86	2.71	16.37	29968.37	
14	22	0.01	-0.44	0.41	-0.30	-0.03	-9.49	252.78	2.71	16.38	29964.92	
14	22	-0.06	-0.16	0.46	-0.24	-0.12	-9.56	252.73	2.72	16.38	29962.71	
14	22	-0.23	-0.43	0.53	-0.33	-0.12	-9.52	252.60	2.74	16.41	29935.79	
14	22	0.14	-0.32	0.35	-0.24	-0.13	-9.54	253.46	2.74	16.41	29938.23	
14	22	-0.07	-0.39	0.60	-0.14	-0.05	-9.53	253.79	2.74	16.40	29940.67	
14	22	-0.36	-0.31	0.67	-0.25	-0.11	-9.49	252.68	2.74	16.41	29939.21	
14	22	-0.14	-0.24	0.19	-0.15	-0.04	-9.70	252.82	2.72	16.37	29961.23	
14	22	-0.45	-0.58	0.52	-0.06	-0.14	-9.43	252.78	2.73	16.39	29949.71	
14	21	-0.29	-0.55	0.55	-0.16	-0.07	-9.39	252.80	2.72	16.38	29955.59	
14	21	2.06	-0.31	0.60	-0.08	-0.11	-9.60	253.39	2.73	16.39	29946.29	
14	21	-0.27	-0.46	0.40	-0.11	-0.12	-9.54	252.85	2.73	16.39	29949.71	
14	21	0.04	-0.21	0.36	-0.25	-0.05	-9.57	252.71	2.71	16.38	29965.90	
14	21	-0.01	-0.52	0.63	-0.18	-0.08	-9.58	252.54	2.73	16.42	29946.29	
14	21	-0.23	-0.67	0.34	-0.25	-0.05	-9.61	252.66	2.72	16.42	29955.59	
14	21	-0.16	-0.47	0.48	-0.32	-0.16	-9.51	253.02	2.73	16.41	29946.29	
14	21	-0.04	-0.09	0.40	-0.21	-0.05	-9.71	253.14	2.74	16.40	29940.67	
14	21	-0.01	-0.50	0.46	-0.21	-0.09	-9.84	252.50	2.75	16.42	29930.19	
14	21	-0.11	-0.23	0.88	-0.12	-0.09	-9.51	252.62	2.75	16.42	29931.16	
14	21	-0.11	-0.48	0.71	-0.11	-0.06	-9.56	253.44	2.73	16.39	29947.51	
14	21	-0.45	-0.37	0.49	-0.05	-0.14	-9.58	252.52	2.75	16.43	29926.54	
14	20	-0.13	-0.47	0.25	-0.28	-0.08	-9.70	253.40	2.76	16.44	29918.53	
14	20	-0.32	-0.62	0.38	-0.27	-0.05	-9.69	253.22	2.76	16.44	29919.74	
14	20	-0.10	-0.38	0.41	-0.29	-0.10	-9.63	252.74	2.75	16.43	29925.57	
14	20	-0.08	-0.61	0.71	-0.16	-0.17	-9.66	252.74	2.76	16.45	29917.31	
14	20	0.02	-0.48	0.41	-0.33	-0.11	-9.67	253.06	2.75	16.44	29932.38	
14	20	-0.19	-0.41	0.39	-0.36	-0.12	-9.69	252.93	2.73	16.43	29945.07	
14	20	-0.18	-0.29	0.43	-0.11	-0.17	-9.71	252.94	2.74	16.41	29938.23	
14	20	-0.24	-0.32	0.64	-0.19	-0.17	-9.63	253.16	2.75	16.44	29927.75	
14	20	0.01	-0.54	0.52	-0.26	-0.09	-9.58	252.78	2.74	16.45	29940.67	
14	20	-0.06	-0.29	0.18	-0.32	-0.06	-9.66	252.73	2.76	16.45	29923.13	
14	20	-0.01	-0.41	0.46	-0.27	-0.15	-9.69	252.99	2.75	16.42	29933.60	
14	20	-0.36	-0.46	0.52	-0.27	-0.02	-9.69	252.64	2.73	16.39	29950.94	
14	19	-0.23	-0.35	0.62	-0.27	-0.06	-9.57	252.62	2.73	16.40	29944.09	
14	19	-0.12	-0.37	0.51	-0.41	-0.09	-9.70	253.08	2.76	16.44	29920.71	
14	19	0.23	-0.55	0.59	-0.32	-0.13	-9.81	253.51	2.76	16.44	29919.74	
14	19	-0.50	-0.67	0.19	-0.06	-0.05	-9.69	252.78	2.74	16.41	29937.01	
14	19	-0.31	-0.41	0.43	-0.24	-0.06	-9.63	252.73	2.74	16.40	29941.65	
14	19	0.01	-0.30	0.45	-0.21	-0.11	-9.60	252.73	2.75	16.48	29931.16	
14	19	0.00	-0.38	0.67	-0.07	-0.12	-9.55	252.64	2.74	16.41	29935.79	
14	19	0.01	-0.36	0.11	-0.25	-0.12	-9.69	252.82	2.76	16.41	29922.17	
14	19	0.17	-0.24	0.41	-0.26	-0.08	-9.72	252.75	2.75	16.43	29932.38	
14	19	-0.12	-0.29	0.39	-0.28	-0.07	-9.73	253.11	2.77	16.45	29911.74	
14	19	-0.09	-0.04	0.69	-0.29	-0.18	-9.58	252.80	2.75	16.45	29925.57	
14	19	-0.24	-0.44	0.35	-0.18	-0.09	-9.81	253.14	2.76	16.44	29920.71	
14	19	-0.11	-0.35	0.52	-0.25	-0.16	-9.51	253.33	2.74	16.41	29939.21	
14	19	-0.07	-0.49	0.64	-0.26	-0.07	-9.81	252.53	2.76	16.44	29919.74	
14	19	-0.10	-0.29	0.76	-0.24	-0.11	-9.67	252.63	2.73	16.39	29949.71	
14	19	-0.33	-0.38	0.46	-0.18	-0.06	-9.71	253.51	2.74	16.40	29942.62	
14	18	-0.31	-0.21	0.56	-0.40	-0.04	-9.52	252.78	2.77	16.46	29910.53	
14	18	-0.28	-0.46	0.50	-0.33	-0.10	-9.62	252.46	2.75	16.43	29926.54	
14	18	0.14	-0.38	0.40	-0.25	-0.04	-9.54	253.12	2.75	16.43	29924.11	
14	18	-0.19	-0.20	0.33	-0.33	-0.11	-9.57	252.90	2.75	16.41	29925.57	
14	18	0.09	-0.34	0.54	-0.20	-0.12	-9.50	252.34	2.75	16.43	29924.11	
14	18	-0.31	-0.48	0.37	-0.26	-0.03	-9.49	252.49	2.75	16.43	29925.57	
14	18	-0.10	-0.57	0.36	-0.09	-0.10	-9.35	252.63	2.76	16.41	29918.53	
14	18	-0.17	-0.60	0.37	-0.12	-0.13	-9.51	252.79	2.75	16.44	29931.16	
14	18	0.13	-0.42	0.36	-0.24	-0.02	-9.66	252.47	2.77	16.42	29907.15	
14	18	-0.67	-0.60	0.54	-0.39	-0.07	-9.67	252.50	2.75	16.43	29926.54	
14	18	0.09	0.04	0.39	-0.14	-0.17	-9.53	252.97	2.73	16.40	29945.07	
15	18	-0.02	-0.25	0.46	-0.17	-0.10	-9.71	252.39	2.75	16.42	29930.19	
15	18	0.04	-0.34	0.30	-0.22	-0.16	-9.70	252.25	2.77	16.46	29908.12	
15	17	-0.26	-0.34	0.57	-0.28	-0.05	-9.66	252.80	2.76	16.44	29919.74	
15	18	-0.27	-0.28	0.26	-0.27	-0.12	-9.66	252.68	2.75	16.43	29925.57	
15	17	-0.05	-0.46	0.56	-0.26	-0.11	-9.58	252.95	2.74	16.41	29934.57	
15	17	-0.19	-0.48	0.23	-0.33	-0.06	-9.64	252.86	2.76	16.44	29920.71	
15	17	-0.39	-0.55	0.59	-0.27	-0.04	-9.60	252.20	2.76	16.45	29923.13	
15	17	0.33	-0.20	0.57	-0.25	-0.01	-9.44	252.54	2.74	16.45	29934.57	
15	17	-0.35	-0.42	0.47	-0.33	-0.12	-9.71	252.61	2.74	16.43	29942.62	
15	17	-0.04	-0.31	0.50	-0.19	-0.25	-9.47	252.30	2.76	16.45	29920.71	
15	17	0.25	-0.33	0.69	-0.15	-0.07	-9.58	252.42	2.74	16.40	29942.62	
15	17	0.08	-0.25	0.56	-0.04	-0.08	-9.40	252.49	2.76	16.44	29920.71	
15	17	-0.23	-0.52	0.37	-0.16	-0.03	-9.63	251.90	2.77	16.45	29912.71	
15	17	-0.08	-0.25	0.27	-0.22	-0.07	-9.72	252.45	2.76	16.44	29920.71	
15	17	-0.05	-0.51	0.53	-0.33	-0.11	-9.74	253.35	2.74	16.41	29934.57	
15	16	-0.25	-0.58	0.36	-0.22	-0.09	-9.65	252.78	2.76	16.44	29919.74	
15	17	-2.08	-0.48	0.59	-0.24	-0.14	-9.64	252.89	2.76	16.44	29918.53	
15	16	-0.09	-0.27	0.32	-0.25	-0.05	-9.58	252.56	2.76	16.44	29923.13	
15	16	-0.18	-0.42	0.52	-0.09	-0.18	-9.42	252.49	2.74	16.40	29940.67	
15	16	-0.11	-0.32	0.30	-0.17	-0.08	-9.47	252.36	2.76	16.43	29918.53	
15	16	0.30	-0.41	0.21	-0.13	-0.05	-9.58	253.09	2.76	16.42	29918.53	
15	16	-0.65	-0.38	0.24	-0.45	-0.05	-9.75	252.97	2.76	16.44	29919.74	
15	16	0.00	-0.13	0.48	-0.32	-0.06	-9.62	252.39	2.78	16.47	29902.32	
15	16	-0.75	-0.48	0.69	-0.18	-0.19	-9.65	252.39	2.75	16.43	29925.57	
15	16	0.18	-0.26	0.57	-0.18	-0.04	-9.51	252.68	2.75	16.43	29924.11	
15	16	-0.14	-0.47	0.61	-0.21	-0.09	-9.54	252.42	2.75	16.43	29924.11	
15	16	-0.03	-0.32	0.62	-0.24	-0.10	-9.48	252.16	2.74	16.41	29935.79	
15	16	0.03	-0.41	0.62	-0.32	-0.12	-9.66	252.33	2.77	16.46	29911.74	
15	16	-0.19	-0.46	0.64	-0.29	-0.04	-9.74	253.17	2.73	16.40	29944.09	
15	16	-0.56	-0.32	0.54	-0.24	-0.10	-9.52	252.47	2.75	16.43	29927.75	
15	15	0.09	-0.18	0.48	-0.20	-0.05	-9.50	252.17	2.76	16.44	29919.74	
15	15	-0.15	-0.37	0.39	-0.26	-0.14	-9.43	252.73	2.74	16.45	29934.57	
15	15	0.09	-0.42	0.39	-0.03	-0.09	-9.66	252.43	2.74	16.42	29940.67	
15	15	-0.25	-0.43	0.65	-0.34	-0.14	-9.66	252.31	2.74	16.41	29935.79	
15	15	0.15	-0.46	0.50	-0.36	-0.01	-9.56	252.43	2.74	16.42	29940.67	
15	15	-0.61	-0.48	0.52	-0.19	-0.19	-9.46	252.15	2.75	16.45	29925.57	
15	15	0.06	-0.33	0.48	-0.16	-0.11	-9.68	252.55	2.75	16.43	29927.75	
15	15	0.11	-0.28	0.58	-0.21	-0.09	-9.63	252.78	2.73	16.39	29947.51	
15	15	0.25	-0.40	0.39	-0.33	-0.02	-9.58	252.19	2.74	16.41	29938.23	
15	15	-0.28	-0.38	0.37	-0.29	-0.11	-9.71	252.45	2.74	16.41	29935.79	
15	15	0.11	-0.25	0.41	-0.11	-0.21	-9.52	252.48	2.75	16.43	29925.57	
15	15	-0.17	-0.31	0.42	-0.13	-0.06	-9.56	252.76	2.75	16.42	29931.16	
15	15	-0.01	-0.38	0.75	-0.24	-0.11	-9.49	253.00	2.74	16.41	29935.79	
15	15	0.02	-0.52	0.36	-0.26	-0.06	-9.81	251.94	2.75	16.42	29931.16	
15	15	-0.17	-0.34	0.59	-0.28	-0.06	-9.54	252.35	2.73	16.39	29950.94	
15	15	-0.11	-0.38	0.34	-0.16	-0.19	-9.42	252.45	2.77	16.45	29912.71	
15	15	-0.16	-0.53	0.30	-0.17	-0.06	-9.63	252.67	2.76	16.46	29920.71	
15	14	-0.03	-0.43	0.36	-0.22	-0.09	-9.54	252.25	2.75	16.39	29926.54	
15	14	-0.17	-0.45	0.58	-0.19	-0.06	-9.62	252.36	2.74	16.40	29939.21	
15	14	0.12	-0.43	0.45	-0.28	-0.03	-9.63	252.78	2.75	16.43	29930.19	
15	14	-0.53	-0.54	0.74	-0.19	-0.13	-9.59	252.85	2.72	16.38	29956.82	
15	14	-0.04	-0.46	0.60	-0.27	-0.10	-9.63	252.19	2.74	16.39	29935.79	
15	14	-0.31	-0.69	0.38	-0.33	-0.01	-9.53	252.33	2.74	16.41	29938.23	
15	14	0.13	-0.25	0.61	-0.33	-0.09	-9.73	252.57	2.74	16.40	29941.65	
15	14	-0.28	-0.56	0.34	-0.21	-0.04	-9.62	252.09	2.73	16.39	29946.29	
15	14	0.64	-0.23	0.70	-0.10	-0.14	-9.67	252.41	2.75	16.42	29933.60	
15	14	-0.56	-0.60	0.60	-0.41	-0.05	-9.53	252.90	2.76	16.45	29917.31	
15	14	0.20	1.94	0.71	-0.24	-0.06	-9.53	252.72	2.76	16.44	29919.74	
15	14	-2.07	-0.39	0.41	-0.19	-0.11	-9.70	252.50	2.74	16.41	29938.23	
15	14	0.12	-0.36	0.25	-0.40	-0.03	-9.50	252.86	2.75	16.42	29933.60	
15	14	-0.45	-0.32	0.55	-0.25	-0.11	-9.54	252.50	2.76	16.44	29922.17	
15	14	-0.60	-0.06	0.35	-0.38	-0.01	-9.69	252.34	2.75	16.42	29932.38	
15	14	-0.13	-0.42	0.55	-0.15	-0.05	-9.65	252.35	2.75	16.42	29930.19	
15	13	-0.26	-0.40	0.22	-0.25	-0.08	-9.49	252.56	2.74	16.41	29939.21	
15	13	0.00	-0.29	0.27	-0.06	-0.08	-9.42	252.72	2.76	16.44	29923.13	
15	13	0.14	-0.60	0.47	-0.35	-0.07	-9.70	252.48	2.73	16.40	29944.09	
15	13	0.04	-0.32	0.46	-0.16	-0.07	-9.60	253.14	2.73	16.40	29949.71	
15	13	-0.26	-0.53	0.28	-0.39	-0.10	-9.58	252.89	2.73	16.40	29950.94	
15	13	-0.16	-0.37	0.40	-0.22	-0.11	-9.66	253.08	2.75	16.43	29928.97	
15	13	-0.03	-0.49	0.46	-0.24	-0.06	-9.70	252.70	2.75	16.43	29927.75	
15	13	-0.11	-0.51	0.33	-0.24	-0.06	-9.67	252.62	2.74	16.41	29935.79	
15	13	-0.42	-0.71	0.78	-0.35	-0.08	-9.60	253.00	2.75	16.42	29933.60	
15	13	-0.25	-0.33	0.57	-0.22	-0.17	-9.53	252.54	2.74	16.41	29937.01	
15	13	-0.06	-0.34	0.42	-0.17	-0.09	-9.58	253.10	2.75	16.42	29928.97	
15	13	-0.01	-0.60	0.58	-0.25	-0.12	-9.49	252.99	2.76	16.44	29923.13	
15	13	-0.58	-0.53	0.17	-0.41	-0.16	-9.70	253.01	2.76	16.45	29915.13	
15	13	-0.21	-0.10	0.22	-0.29	-0.07	-9.53	253.15	2.74	16.40	29940.67	
15	13	0.13	-0.27	0.56	-0.17	-0.20	-9.47	252.85	2.76	16.39	29915.13	
15	13	0.25	-0.43	0.73	-0.19	-0.08	-9.46	252.47	2.73	16.40	29946.29	
15	13	-0.16	-0.29	0.42	-0.15	-0.11	-9.64	252.30	2.74	16.41	29937.01	
15	13	-0.28	-0.21	0.64	-0.26	-0.04	-9.56	252.93	2.74	16.41	29938.23	
15	13	0.25	-0.30	0.49	-0.20	-0.14	-9.47	252.76	2.75	16.44	29930.19	
15	13	-0.30	-0.53	0.20	-0.20	-0.18	-9.58	252.97	2.73	16.40	29947.51	
15	13	-0.06	-0.28	0.53	-0.18	-0.09	-9.61	252.50	2.73	16.40	29944.09	
15	13	-0.15	-0.45	0.46	-0.33	-0.05	-9.60	253.16	2.74	16.41	29937.01	
15	13	-0.14	-0.08	0.40	-0.33	-0.10	-9.61	252.83	2.76	16.44	29919.74	
15	13	-0.77	-0.49	0.67	-0.35	-0.18	-9.58	252.05	2.74	16.40	29941.65	
15	12	0.08	-0.28	0.47	-0.01	-0.13	-9.59	252.36	2.73	16.38	29953.14	
15	12	-0.33	-0.51	0.46	-0.20	-0.02	-9.66	252.41	2.73	16.38	29952.16	
15	12	0.47	-0.30	0.47	-0.32	-0.06	-9.60	252.80	2.75	16.42	29930.19	
15	12	-0.46	-0.53	0.46	-0.19	-0.13	-9.58	252.76	2.73	16.41	29949.71	
15	12	0.08	-0.47	0.46	-0.37	-0.11	-9.68	252.18	2.71	16.39	29964.92	
15	12	-0.43	-0.67	0.29	-0.06	-0.09	-9.53	252.41	2.72	16.40	29954.37	
15	12	0.36	-0.33	0.77	-0.12	-0.05	-9.56	251.99	2.73	16.39	29944.09	
15	12	-0.20	-0.46	0.49	-0.35	-0.10	-9.70	252.29	2.74	16.38	29935.79	
15	12	-0.25	-0.31	0.53	-0.23	-0.10	-9.58	252.59	2.73	16.39	29949.71	
15	12	-0.58	-0.16	0.38	-0.19	-0.08	-9.60	253.02	2.73	16.39	29949.71	
15	12	0.23	-0.17	0.30	-0.14	-0.11	-9.60	252.73	2.74	16.41	29937.01	
15	12	-0.04	-0.46	0.46	-0.09	-0.07	-9.55	252.96	2.73	16.40	29945.07	
15	12	0.10	-0.22	0.56	-0.33	-0.02	-9.61	252.52	2.75	16.43	29927.75	
15	12	-0.27	-0.47	0.39	-0.22	-0.24	-9.61	252.34	2.72	16.38	29955.59	
15	12	0.31	-0.31	0.42	-0.25	-0.07	-9.69	252.39	2.75	16.42	29932.38	
15	12	-0.64	-0.40	0.88	-0.14	-0.11	-9.45	252.76	2.74	16.41	29939.21	
15	12	0.10	-0.22	0.37	-0.43	-0.06	-9.63	252.34	2.73	16.38	29944.09	
15	12	0.39	-0.35	0.46	-0.33	-0.07	-9.70	252.70	2.71	16.40	29967.38	
15	12	0.50	-0.53	0.70	-0.18	-0.18	-9.58	252.33	2.73	16.38	29948.73	
15	12	-0.47	-0.50	0.38	-0.20	-0.07	-9.58	253.34	2.72	16.41	29956.82	
15	12	-0.19	-0.52	0.39	-0.22	-0.06	-9.60	253.03	2.74	16.39	29939.21	
15	11	0.14	-0.25	0.55	-0.39	-0.11	-9.68	252.87	2.73	16.38	29952.16	
15	11	0.34	-0.42	0.61	-0.15	-0.21	-9.61	252.57	2.73	16.38	29952.16	
15	11	0.15	-0.35	0.52	-0.18	-0.12	-9.66	252.72	2.73	16.39	29946.29	
16	12	-0.24	-0.14	0.55	-0.17	-0.06	-9.46	252.81	2.75	16.42	29933.60	
16	12	-0.06	-0.42	0.27	-0.43	-0.11	-9.49	252.66	2.73	16.40	29944.09	
16	12	-0.37	-0.55	0.54	-0.36	-0.03	-9.67	252.86	2.72	16.38	29954.37	
16	12	-0.56	-0.55	0.34	-0.11	-0.11	-9.54	253.18	2.73	16.39	29946.29	
16	12	0.18	-0.24	0.63	-0.16	-0.01	-9.61	252.23	2.74	16.42	29939.21	
16	12	-0.06	-0.35	0.62	-0.32	-0.09	-9.62	252.31	2.73	16.41	29949.71	
16	12	-0.55	-0.39	0.43	-0.35	-0.14	-9.60	253.06	2.72	16.41	29956.82	
16	12	0.38	-0.15	0.53	-0.35	-0.19	-9.60	252.67	2.74	16.44	29942.62	
16	12	0.15	-0.54	0.42	-0.08	-0.17	-9.41	252.38	2.75	16.42	29927.75	
16	12	0.08	-0.44	0.43	-0.16	-0.04	-9.63	252.11	2.74	16.38	29938.23	
16	12	-0.34	-0.43	0.47	-0.28	-0.03	-9.58	252.07	2.76	16.44	29923.13	
16	12	0.49	-0.28	0.52	-0.25	-0.17	-9.62	252.81	2.75	16.43	29927.75	
16	12	-0.16	-0.52	0.31	-0.35	-0.09	-9.62	252.12	2.75	16.42	29930.19	
16	12	0.19	-0.55	0.60	-0.19	-0.13	-9.67	252.37	2.73	16.39	29948.73	
16	12	-0.80	-0.69	0.86	-0.16	-0.16	-9.49	252.19	2.75	16.42	29933.60	
16	12	0.07	-0.46	0.36	-0.42	-0.01	-9.58	252.68	2.73	16.38	29952.16	
16	12	-0.11	-0.38	0.51	-0.17	-0.03	-9.42	252.20	2.74	16.41	29938.23	
16	12	0.49	-0.04	0.51	-0.33	-0.20	-9.58	251.98	2.73	16.40	29948.73	
16	11	-0.25	-0.56	0.48	-0.23	-0.12	-9.60	252.84	2.73	16.40	29952.16	
16	11	-0.11	-0.38	0.34	-0.21	-0.11	-9.46	252.42	2.75	16.40	29924.11	
16	11	-2.07	-0.18	0.47	-0.27	-0.03	-9.64	252.50	2.76	16.43	29920.71	
16	11	-0.36	-0.54	0.46	-0.37	-0.02	-9.67	252.67	2.75	16.40	29926.54	
16	11	-0.19	-0.44	0.46	-0.16	-0.07	-9.62	253.10	2.74	16.42	29935.79	
16	11	-0.25	-0.31	0.47	-0.25	-0.10	-9.58	252.69	2.76	16.45	29916.10	
16	11	-0.01	-0.46	0.44	-0.26	-0.20	-9.62	252.69	2.75	16.42	29930.19	
16	11	-0.21	-0.42	0.59	-0.20	-0.15	-9.47	252.22	2.75	16.42	29931.16	
16	11	-0.44	-0.44	0.38	-0.28	-0.10	-9.62	252.53	2.75	16.42	29930.19	
16	11	0.14	-0.35	0.55	-0.16	-0.03	-9.42	252.57	2.72	16.38	29954.37	
16	11	-0.15	-0.36	0.27	-0.21	-0.06	-9.54	252.64	2.76	16.44	29922.17	
16	11	-0.04	-0.40	0.53	-0.50	-0.09	-9.59	252.31	2.75	16.42	29933.60	
16	11	-0.07	-0.24	0.51	-0.13	-0.13	-9.68	252.48	2.75	16.40	29927.75	
16	11	0.01	-0.19	0.55	-0.14	-0.09	-9.61	252.54	2.73	16.42	29946.29	
16	11	-0.23	-0.40	0.67	-0.09	-0.02	-9.58	252.33	2.75	16.40	29931.16	
16	11	0.10	-0.49	0.38	-0.38	-0.08	-9.56	252.36	2.75	16.41	29930.19	
16	11	-0.08	-0.65	0.51	-0.28	-0.09	-9.81	252.34	2.75	16.42	29925.57	
16	11	-0.36	-0.27	0.70	-0.11	-0.11	-9.60	252.92	2.74	16.44	29934.57	
16	11	-0.25	-0.46	0.54	-0.14	-0.09	-9.54	252.50	2.74	16.41	29935.79	
16	11	0.08	-0.24	0.35	-0.37	-0.03	-9.56	252.90	2.77	16.46	29911.74	
16	11	-0.10	-0.31	0.57	-0.25	-0.11	-9.70	252.42	2.75	16.43	29925.57	
16	11	-0.15	-0.43	0.50	-0.24	-0.05	-9.63	252.65	2.75	16.43	29927.75	
16	11	-0.18	-0.46	0.42	-0.13	-0.06	-9.58	252.74	2.76	16.44	29919.74	
16	11	0.17	-0.30	0.52	-0.35	-0.05	-9.56	252.99	2.74	16.40	29942.62	
16	11	-0.22	-0.49	0.34	-0.32	-0.11	-9.63	252.71	2.74	16.41	29939.21	
16	11	-0.02	-0.43	0.84	-0.17	-0.02	-9.62	252.63	2.75	16.43	29926.54	
16	11	-0.22	-0.39	0.57	-0.27	-0.01	-9.70	252.75	2.75	16.42	29927.75	
16	11	-0.10	-0.45	0.44	-0.24	-0.05	-9.52	252.95	2.76	16.44	29923.13	
16	10	-0.38	-0.51	0.53	-0.16	-0.15	-9.70	252.54	2.76	16.44	29917.31	
16	11	0.04	-0.31	0.37	-0.17	-0.01	-9.61	252.83	2.75	16.44	29927.75	
16	10	-0.28	-0.34	0.35	-0.27	-0.04	-9.56	252.90	2.74	16.41	29935.79	
16	10	-0.10	-0.37	0.89	-0.44	-0.05	-9.61	251.84	2.76	16.44	29922.17	
16	10	-0.16	-0.61	0.40	-0.24	-0.20	-9.66	252.76	2.75	16.42	29931.16	
16	10	0.44	-0.31	0.47	-0.12	-0.10	-9.51	252.87	2.77	16.45	29912.71	
16	10	-0.54	-0.66	0.64	-0.11	-0.02	-9.62	252.82	2.77	16.45	29912.71	
16	10	-0.19	-0.46	0.47	-0.21	-0.06	-9.62	252.72	2.78	16.49	29894.36	
16	10	-0.47	-0.56	0.39	-0.37	-0.12	-9.81	252.38	2.76	16.44	29923.13	
16	10	0.57	-0.25	0.42	-0.33	-0.16	-9.62	252.78	2.75	16.44	29931.16	
16	10	-0.34	-0.38	0.27	-0.09	-0.16	-9.43	252.12	2.75	16.43	29926.54	
16	10	-0.42	-0.39	0.55	-0.16	-0.09	-9.69	252.37	2.78	16.43	29898.94	
16	10	0.03	-0.48	0.45	-0.11	-0.02	-9.49	252.83	2.74	16.42	29938.23	
16	10	0.29	-0.57	0.66	-0.26	-0.16	-9.60	252.81	2.75	16.44	29928.97	
16	10	-0.19	-0.32	0.34	-0.33	-0.07	-9.69	252.85	2.74	16.46	29934.57	
16	10	0.22	-0.20	0.36	-0.27	-0.17	-9.47	252.48	2.76	16.44	29918.53	
16	10	-0.14	-0.35	0.46	-0.15	-0.08	-9.61	252.09	2.76	16.44	29918.53	
16	10	-0.14	-0.28	0.52	-0.22	-0.09	-9.55	252.79	2.76	16.44	29919.74	
16	10	-0.56	-0.40	0.55	-0.20	-0.12	-9.49	252.64	2.76	16.45	29915.13	
16	10	0.20	-0.45	0.34	-0.20	-0.11	-9.48	252.79	2.76	16.44	29918.53	
16	10	0.04	-0.27	0.53	-0.34	-0.04	-9.58	252.62	2.75	16.42	29928.97	
16	10	-0.25	-0.29	0.58	-0.40	-0.06	-9.81	252.42	2.77	16.45	29912.71	
16	10	0.00	-0.61	0.60	-0.31	-0.14	-9.60	252.24	2.75	16.43	29930.19	
16	10	-0.56	-0.55	0.61	-0.23	-0.13	-9.70	252.68	2.78	16.46	29896.77	
16	10	-0.35	-0.51	0.40	-0.21	-0.09	-9.68	252.49	2.76	16.44	29915.13	
16	10	0.05	-0.24	0.24	-0.04	-0.07	-9.58	253.44	2.75	16.45	29927.75	
16	10	-0.60	-0.82	0.71	-0.08	-0.11	-9.58	252.53	2.76	16.43	29917.31	
16	10	-0.15	-0.26	0.33	-0.25	-0.09	-9.47	252.29	2.76	16.43	29916.10	
16	10	-0.25	-0.42	0.48	-0.17	-0.06	-9.75	252.46	2.76	16.45	29914.16	
16	10	-0.24	-0.48	0.49	-0.21	-0.04	-9.63	252.18	2.77	16.47	29905.70	
16	10	-0.06	-0.31	0.34	-0.22	-0.16	-9.58	252.43	2.76	16.45	29917.31	
16	9	-0.16	-0.53	0.45	-0.26	-0.14	-9.65	252.71	2.78	16.48	29898.94	
16	9	0.12	0.03	0.40	-0.39	-0.07	-9.66	252.90	2.78	16.47	29903.77	
16	9	-0.23	-0.36	0.29	-0.07	-0.13	-9.58	252.66	2.77	16.46	29911.74	
16	9	-0.25	-0.17	0.40	-0.16	-0.02	-9.64	252.35	2.78	16.49	29895.80	
16	9	0.29	-0.08	0.31	-0.25	-0.03	-9.56	252.79	2.77	16.45	29907.15	
16	9	-0.21	-0.52	0.36	-0.35	-0.09	-9.62	252.73	2.77	16.48	29904.73	
16	9	0.13	-0.35	0.17	-0.40	-0.13	-9.85	252.78	2.77	16.42	29911.74	
16	9	-0.50	-0.57	0.21	-0.24	-0.09	-9.58	252.21	2.77	16.48	29904.73	
16	9	0.14	-0.26	0.60	-0.21	-0.16	-9.62	252.61	2.76	16.44	29919.74	
16	9	-0.25	-0.57	0.46	-0.32	-0.07	-9.67	253.20	2.78	16.48	29900.15	
16	9	0.22	-0.21	0.46	-0.23	-0.12	-9.53	253.12	2.78	16.47	29903.77	
16	9	-0.29	-0.60	0.60	-0.32	-0.16	-9.59	252.90	2.76	16.44	29922.17	
16	9	-0.45	-0.33	0.55	-0.33	-0.04	-9.69	252.79	2.78	16.47	29903.77	
16	9	0.15	-0.31	0.47	-0.19	-0.20	-9.49	252.73	2.77	16.46	29907.15	
16	9	-0.20	-0.22	0.41	-0.29	-0.14	-9.66	252.50	2.78	16.49	29895.80	
16	9	-0.14	-0.36	0.52	-0.22	-0.15	-9.58	251.96	2.78	16.48	29900.15	
16	9	-0.06	-0.39	0.56	-0.12	-0.09	-9.52	252.42	2.79	16.49	29889.79	
16	9	-0.34	-0.29	0.38	-0.46	-0.08	-9.63	252.36	2.79	16.48	29889.79	
16	9	0.31	-0.30	0.16	-0.30	-0.14	-9.54	252.70	2.78	16.46	29901.35	
16	9	-0.23	-0.46	0.25	-0.25	-0.19	-9.58	252.70	2.79	16.53	29893.40	
16	9	0.25	-0.17	0.60	-0.12	-0.06	-9.69	252.56	2.79	16.52	29890.99	
16	9	-0.60	-0.48	0.58	-0.13	-0.01	-9.50	252.37	2.79	16.52	29889.79	
16	9	-0.01	-0.45	0.54	-0.32	-0.09	-9.48	253.37	2.78	16.48	29897.74	
16	9	-0.44	-0.25	0.50	-0.36	-0.01	-9.70	252.95	2.80	16.51	29879.46	
16	9	0.15	-0.34	0.63	-0.17	-0.09	-9.70	252.80	2.80	16.52	29877.55	
16	9	-0.45	-0.63	0.34	-0.23	-0.05	-9.53	252.67	2.79	16.49	29893.40	
16	9	-0.19	-0.28	0.28	-0.26	-0.02	-9.67	252.35	2.80	16.51	29883.06	
16	9	-0.08	-0.44	0.51	-0.27	-0.12	-9.52	253.05	2.77	16.49	29909.32	
16	9	-0.24	-0.17	0.49	-0.25	-0.12	-9.60	252.49	2.80	16.50	29884.02	
16	9	-0.24	-0.34	0.65	-0.26	-0.16	-9.58	252.82	2.80	16.52	29881.86	
16	9	0.01	-0.30	0.15	-0.10	-0.10	-9.57	253.03	2.80	16.49	29881.86	
16	9	-0.08	-0.46	0.25	-0.16	-0.10	-9.58	252.64	2.79	16.49	29893.40	
16	9	-0.39	-0.25	0.56	-0.47	-0.02	-9.62	253.33	2.80	16.51	29883.06	
16	9	0.33	-0.31	0.42	-0.23	-0.12	-9.68	252.40	2.79	16.50	29888.83	
16	9	0.08	-0.60	0.54	-0.28	-0.02	-9.84	252.74	2.80	16.52	29875.15	
16	9	0.08	-0.43	0.79	-0.06	-0.11	-9.53	252.72	2.80	16.51	29881.86	
16	9	-0.63	-0.47	0.36	-0.33	-0.03	-9.58	252.50	2.79	16.49	29890.99	
16	9	0.02	-0.48	0.49	-0.34	-0.05	-9.69	252.29	2.80	16.52	29878.51	
16	9	0.02	-0.27	0.38	-0.30	-0.03	-9.63	253.15	2.80	16.53	29881.86	
16	9	-0.14	-0.34	0.52	-0.33	-0.10	-9.61	252.87	2.80	16.51	29883.06	
16	9	-0.12	-0.44	0.44	-0.40	-0.08	-9.81	252.90	2.80	16.54	29879.46	
16	9	0.02	-0.50	0.25	-0.22	-0.10	-9.63	252.90	2.80	16.54	29875.15	
16	9	-0.18	-0.53	0.67	-0.18	-0.06	-9.57	252.85	2.78	16.53	29895.80	
16	9	-0.55	-0.18	0.45	-0.23	-0.05	-9.62	252.65	2.80	16.51	29879.46	
16	9	0.38	-0.27	0.05	-0.33	-0.11	-9.58	252.97	2.82	16.55	29857.96	
16	9	-0.25	-0.24	0.28	-0.35	-0.16	-9.70	252.81	2.82	16.55	29862.49	
16	9	-0.56	-0.47	0.64	-0.25	-0.21	-9.54	252.65	2.81	16.54	29865.83	
16	9	0.53	-0.35	0.29	-0.15	-0.06	-9.60	252.93	2.82	16.56	29857.00	
16	9	1.72	-0.67	0.30	-0.35	-0.04	-9.73	252.89	2.80	16.52	29876.11	
16	9	0.29	-0.15	0.54	-0.26	-0.10	-9.55	252.38	2.82	16.55	29861.29	
16	9	0.03	-0.44	0.49	-0.39	-0.07	-9.81	252.63	2.83	16.58	29846.78	
16	9	0.04	-0.38	0.24	-0.20	-0.12	-9.68	252.61	2.82	16.55	29857.96	
16	9	-0.05	-0.43	0.78	-0.35	-0.14	-9.70	252.72	2.81	16.55	29871.56	
16	9	-0.38	-0.54	0.60	-0.32	-0.09	-9.60	252.42	2.83	16.53	29854.62	
16	9	0.30	-0.47	0.66	-0.13	-0.07	-9.64	252.57	2.81	16.56	29873.96	
16	9	-0.09	-0.47	0.47	-0.28	-0.09	-9.57	252.69	2.82	16.55	29862.49	
16	9	-0.28	-0.31	0.29	-0.24	-0.03	-9.49	252.49	2.82	16.55	29859.39	
16	9	-0.31	-0.26	0.25	-0.17	-0.04	-9.50	252.57	2.82	16.55	29860.34	
16	9	-0.10	-0.37	0.66	-0.33	-0.11	-9.69	252.60	2.83	16.57	29850.10	
16	9	0.13	-0.38	0.38	-0.21	-0.15	-9.64	252.80	2.82	16.55	29860.34	
16	9	-0.42	-0.50	0.65	-0.20	-0.11	-9.60	252.51	2.84	16.59	29838.95	
16	9	-0.02	-0.45	0.59	-0.09	-0.09	-9.59	253.27	2.82	16.55	29857.96	
16	9	-0.66	-0.41	0.44	-0.04	-0.10	-9.56	253.18	2.85	16.60	29835.40	
16	9	0.25	-0.04	0.28	-0.42	-0.01	-9.68	252.30	2.85	16.56	29834.45	
16	9	-0.12	-0.46	1.02	-0.24	-0.10	-9.63	252.73	2.84	16.57	29843.22	
16	9	-0.19	-0.31	0.53	-0.26	-0.16	-9.62	252.97	2.84	16.55	29838.95	
16	9	-0.16	-0.33	0.63	-0.32	-0.08	-9.75	252.77	2.83	16.57	29849.16	
16	8	-0.19	-0.46	0.31	-0.11	-0.09	-9.48	252.52	2.84	16.58	29838.95	
16	9	-0.10	-0.31	0.64	-0.33	-0.11	-9.59	252.47	2.85	16.60	29835.40	
16	8	-0.07	-0.31	0.49	-0.37	-0.11	-9.73	252.67	2.81	16.54	29868.22	
16	8	-0.46	-0.54	0.52	-0.11	-0.07	-9.49	253.17	2.83	16.56	29854.62	
16	8	-0.25	-0.23	0.56	-0.15	-0.13	-9.47	252.78	2.85	16.61	29828.78	
16	8	-0.46	-0.36	0.94	-0.35	-0.12	-9.64	252.62	2.85	16.61	29829.72	
16	8	-0.01	-0.31	0.60	-0.26	-0.19	-9.58	252.67	2.85	16.61	29829.72	
16	8	-0.33	-0.59	0.47	-0.32	-0.13	-9.62	252.24	2.85	16.61	29827.60	
16	8	0.12	-0.25	0.47	-0.10	-0.05	-9.57	252.79	2.83	16.59	29849.16	
16	8	-0.34	-0.69	0.77	-0.06	-0.09	-9.54	252.49	2.82	16.61	29862.49	
16	8	-0.14	-0.39	0.57	-0.20	-0.05	-9.58	252.81	2.87	16.66	29809.70	
16	8	0.20	-0.20	0.62	-0.34	-0.05	-9.58	252.79	2.86	16.62	29819.81	
16	8	0.21	-0.46	0.74	-0.23	-0.14	-9.65	252.24	2.88	16.61	29806.41	
16	8	-0.12	-0.52	0.20	-0.33	-0.11	-9.70	252.41	2.86	16.60	29824.30	
16	8	-0.05	-0.42	0.46	-0.25	-0.16	-9.47	252.74	2.86	16.63	29817.46	
16	8	-0.04	-0.43	0.55	-0.17	-0.13	-9.61	252.98	2.87	16.64	29813.23	
16	8	-0.56	-0.46	0.35	-0.21	-0.05	-9.59	252.64	2.85	16.61	29827.60	
16	8	-0.11	-0.35	0.31	-0.17	-0.05	-9.69	252.33	2.86	16.62	29824.30	
16	8	-0.26	-0.39	0.67	-0.28	-0.10	-9.66	253.11	2.85	16.61	29828.78	
16	8	-0.44	-0.34	0.23	-0.37	-0.06	-9.73	252.54	2.86	16.63	29817.46	
16	8	-1.93	-0.34	0.55	-0.12	-0.13	-9.62	252.76	2.86	16.62	29823.35	
16	8	-0.05	-0.24	0.67	-0.27	-0.12	-9.59	252.72	2.85	16.60	29826.42	
16	8	-0.04	-0.28	0.38	-0.27	-0.04	-9.69	252.92	2.88	16.65	29805.24	
16	8	-0.15	-0.68	0.21	0.03	-0.09	-9.52	253.03	2.86	16.64	29821.94	
17	8	0.29	-0.60	0.44	-0.28	-0.07	-9.53	252.92	2.87	16.59	29808.53	
17	7	-0.28	-0.35	0.30	-0.20	-0.02	-9.65	252.85	2.86	16.65	29818.64	
17	8	0.09	-0.24	0.51	-0.25	-0.16	-9.50	252.53	2.89	16.67	29795.41	
17	7	0.17	-0.26	0.49	-0.32	-0.14	-9.73	252.22	2.87	16.64	29810.88	
17	7	-0.31	-0.49	0.53	-0.11	-0.14	-9.46	252.60	2.86	16.62	29824.30	
17	7	-0.21	-0.37	0.81	-0.29	-0.06	-9.60	253.32	2.87	16.64	29809.70	
17	7	-0.25	-0.51	0.47	-0.44	-0.05	-9.75	253.00	2.86	16.63	29817.46	
17	7	-0.01	-0.44	0.33	-0.23	-0.13	-9.54	252.61	2.89	16.68	29790.73	
17	7	-0.16	-0.11	0.29	-0.28	-0.13	-9.62	253.17	2.87	16.65	29808.53	
17	7	-0.25	-0.50	0.60	-0.19	-0.02	-9.61	252.86	2.88	16.66	29803.13	
17	7	-0.52	-0.47	0.19	-0.14	-0.09	-9.64	252.62	2.89	16.70	29794.00	
17	7	-0.39	-0.46	0.74	-0.23	-0.12	-9.59	253.28	2.90	16.67	29785.36	
17	7	0.05	-0.20	0.38	-0.18	-0.08	-9.66	252.57	2.90	16.66	29783.96	
17	7	-0.38	-0.39	0.54	-0.18	-0.09	-9.66	252.54	2.90	16.66	29785.36	
17	7	-0.21	-0.47	0.45	-0.33	-0.11	-9.60	252.86	2.90	16.69	29785.36	
17	7	-0.44	-0.46	0.49	-0.41	-0.10	-9.58	252.73	2.89	16.67	29794.00	
17	7	-0.19	-0.44	0.62	-0.41	-0.17	-9.70	252.93	2.87	16.65	29807.35	
17	7	-0.49	-0.60	0.58	-0.21	-0.11	-9.54	253.14	2.89	16.68	29791.90	
17	7	-0.19	-0.30	0.68	-0.08	-0.07	-9.51	252.87	2.88	16.66	29803.13	
17	7	0.11	-0.57	0.38	-0.08	-0.06	-9.65	252.52	2.88	16.67	29797.28	
17	7	-0.36	-0.53	0.31	-0.26	-0.01	-9.72	252.53	2.90	16.67	29785.36	
17	7	0.18	-0.17	0.63	-0.28	-0.16	-9.56	252.96	2.89	16.68	29788.63	
17	7	1.72	-0.39	0.67	-0.23	-0.06	-9.81	252.64	2.90	16.67	29779.54	
17	7	-0.60	-0.34	0.26	-0.33	-0.09	-9.61	252.57	2.89	16.70	29789.56	
17	7	0.03	-0.38	0.39	-0.26	-0.13	-9.57	252.12	2.89	16.70	29790.73	
17	7	0.12	-0.16	0.41	-0.08	-0.09	-9.48	252.75	2.92	16.69	29765.37	
17	7	0.21	-0.32	0.46	-0.18	-0.06	-9.56	252.81	2.90	16.69	29783.03	
17	6	0.01	-0.22	0.52	-0.24	-0.10	-9.62	252.74	2.91	16.70	29777.68	
17	7	-0.24	-0.41	0.19	-0.13	-0.11	-9.68	252.84	2.90	16.69	29786.29	
17	6	-0.43	-0.45	0.72	-0.26	-0.11	-9.52	252.86	2.91	16.70	29777.68	
17	6	-0.21	-0.36	0.42	-0.35	-0.10	-9.64	252.96	2.90	16.70	29781.87	
17	6	-0.31	-0.36	0.41	-0.21	-0.06	-9.65	253.41	2.92	16.73	29765.37	
17	6	0.13	-0.37	0.69	-0.30	-0.06	-9.59	252.57	2.91	16.72	29769.77	
17	6	-0.65	-0.51	0.56	-0.25	-0.12	-9.75	253.08	2.92	16.73	29760.96	
17	6	-0.06	-0.49	0.65	-0.10	-0.16	-9.55	252.16	2.92	16.71	29765.37	
17	6	0.08	-0.47	0.39	-0.38	-0.05	-9.65	252.83	2.91	16.74	29771.86	
17	6	-0.14	-0.31	0.54	-0.28	-0.07	-9.57	252.70	2.90	16.72	29781.87	
17	6	0.29	-0.41	0.62	-0.02	-0.05	-9.47	252.65	2.91	16.72	29776.28	
17	6	-0.37	-0.54	0.52	-0.17	-0.08	-9.59	253.04	2.92	16.72	29767.69	
17	6	-0.04	-0.53	0.43	-0.36	-0.10	-9.74	253.15	2.91	16.70	29777.68	
17	6	-0.38	-0.39	0.56	-0.24	-0.06	-9.51	252.77	2.93	16.74	29757.72	
17	6	-0.02	-0.28	0.46	-0.42	-0.03	-9.63	252.86	2.92	16.74	29760.04	
17	6	0.32	-0.36	0.14	-0.32	-0.12	-9.65	253.38	2.93	16.76	29750.10	
17	6	-0.36	-0.19	0.40	-0.17	-0.10	-9.56	253.04	2.93	16.75	29752.18	
17	6	0.10	-0.31	0.32	-0.17	-0.09	-9.53	252.25	2.93	16.75	29754.25	
17	6	-0.42	-0.36	0.22	-0.11	-0.07	-9.67	253.29	2.92	16.74	29760.96	
17	6	-0.09	-0.21	0.48	-0.20	-0.08	-9.58	252.98	2.94	16.74	29747.79	
17	6	-0.32	-0.65	0.31	-0.18	-0.11	-9.70	252.97	2.94	16.75	29744.33	
17	6	-0.45	-0.46	0.31	-0.33	-0.05	-9.66	252.66	2.93	16.79	29751.02	
17	6	-0.48	-0.48	0.51	-0.36	-0.07	-9.60	252.99	2.96	16.76	29729.16	
17	6	-0.16	-0.29	0.41	-0.16	-0.11	-9.59	252.92	2.94	16.76	29746.64	
17	6	-0.04	-0.38	0.35	-0.10	-0.11	-9.47	252.81	2.92	16.73	29763.05	
17	6	0.17	-0.24	0.48	-0.32	-0.14	-9.58	252.57	2.93	16.75	29754.25	
17	6	0.20	-0.38	0.38	-0.28	-0.09	-9.72	252.51	2.94	16.77	29743.41	
17	6	-0.16	-0.57	0.46	-0.05	-0.10	-9.53	253.12	2.96	16.80	29728.01	
17	6	-1.87	-0.50	0.40	-0.33	-0.07	-9.59	252.81	2.94	16.77	29740.19	
17	6	-0.19	-0.35	0.44	-0.33	-0.09	-9.60	252.54	2.94	16.77	29741.11	
17	6	-0.11	-0.38	0.42	-0.07	-0.09	-9.53	252.78	2.96	16.78	29728.01	
17	6	0.16	-0.19	0.53	-0.27	-0.13	-9.56	253.11	2.95	16.78	29736.73	
17	5	-0.56	-0.36	0.60	-0.36	-0.07	-9.92	253.12	2.95	16.77	29734.67	
17	5	0.02	-0.51	0.64	-0.18	-0.13	-9.58	253.22	2.96	16.80	29726.86	
17	5	-0.36	-0.46	0.38	-0.16	-0.14	-9.65	252.97	2.95	16.77	29735.82	
17	5	-0.25	-0.42	0.45	-0.25	-0.16	-9.59	253.21	2.94	16.82	29743.41	
17	5	-0.11	-0.39	0.41	-0.27	0.02	-9.42	252.68	2.96	16.80	29725.95	
17	5	-0.78	-0.47	0.67	-0.35	-0.10	-9.71	252.97	2.97	16.81	29719.31	
17	5	-0.18	-0.35	0.50	-0.33	-0.11	-9.58	252.95	2.98	16.83	29711.77	
17	5	-0.24	-0.51	0.74	-0.26	-0.06	-9.57	253.03	2.97	16.81	29719.31	
17	5	-0.16	-0.42	0.38	-0.19	-0.13	-9.56	253.54	2.96	16.81	29723.66	
17	5	-0.04	-0.33	0.63	-0.22	-0.07	-9.60	252.99	2.97	16.81	29720.45	
17	5	-0.47	-0.58	0.72	-0.08	-0.02	-9.54	253.10	2.96	16.81	29722.74	
17	5	-0.23	-0.55	0.42	-0.16	-0.05	-9.51	252.53	2.96	16.84	29721.37	
17	5	-0.25	-0.37	0.58	-0.11	-0.11	-9.80	252.61	2.96	16.83	29725.95	
17	5	0.17	-0.65	0.30	-0.30	-0.11	-9.56	252.52	2.98	16.84	29710.62	
17	5	-0.01	-0.25	0.57	-0.20	-0.10	-9.59	252.95	2.97	16.83	29713.82	
17	5	-0.01	-0.32	0.40	-0.36	-0.06	-9.71	252.93	2.98	16.83	29708.57	
17	5	-0.54	-0.70	0.62	-0.40	-0.09	-9.67	252.82	2.98	16.83	29710.62	
17	5	-0.11	-0.39	0.31	-0.21	-0.08	-9.56	252.85	2.98	16.84	29708.57	
17	5	-0.02	-0.45	0.38	-0.09	-0.06	-9.60	253.62	2.99	16.85	29701.96	
17	5	-0.07	-0.14	0.38	-0.21	-0.03	-9.62	252.80	2.97	16.82	29718.16	
17	5	0.25	-0.34	0.24	-0.10	-0.02	-9.58	253.03	2.98	16.84	29708.57	
17	5	-0.14	-0.43	0.54	-0.17	-0.08	-9.55	253.13	2.99	16.85	29700.83	
17	5	-2.18	-0.11	0.33	-0.40	-0.17	-9.64	252.84	2.98	16.83	29710.62	
17	5	-0.22	-0.48	0.41	-0.25	-0.13	-9.70	252.53	3.01	16.91	29680.41	
17	5	-0.05	-0.34	0.52	-0.24	-0.15	-9.60	252.37	3.00	16.84	29685.84	
17	5	0.23	-0.45	0.43	-0.38	-0.12	-9.64	252.75	2.98	16.86	29707.43	
17	5	-0.11	-0.60	0.51	-0.35	-0.02	-9.70	253.11	3.01	16.85	29677.02	
17	5	0.21	-0.20	0.24	-0.13	-0.05	-9.71	252.92	3.00	16.86	29692.19	
17	5	-0.23	-0.38	0.53	-0.17	-0.07	-9.67	253.39	3.01	16.90	29680.41	
17	5	-0.26	-0.55	0.33	-0.12	-0.02	-9.49	252.89	2.99	16.85	29700.83	
17	5	0.23	-0.31	0.52	-0.28	-0.05	-9.56	252.57	3.00	16.87	29691.06	
17	5	-0.44	-0.68	0.31	-0.24	-0.13	-9.62	253.01	3.02	16.91	29668.67	
17	5	0.28	-0.16	0.33	-0.27	-0.12	-9.81	252.50	3.01	16.90	29677.02	
17	5	-0.04	-0.50	0.60	-0.22	-0.10	-9.66	253.02	3.00	16.88	29686.75	
17	5	-0.38	-0.38	0.45	-0.20	-0.12	-9.56	252.53	3.04	16.94	29653.60	
17	5	0.01	-0.37	0.47	-0.11	-0.09	-9.59	252.54	3.03	16.92	29664.17	
17	5	-0.49	-0.49	0.46	-0.21	-0.07	-9.54	252.81	3.05	16.97	29640.61	
17	5	-0.47	-0.48	0.35	-0.15	-0.05	-9.58	252.81	3.00	16.94	29684.71	
17	5	-0.31	-0.34	0.60	-0.03	-0.09	-9.57	252.81	3.03	16.93	29663.26	
17	5	-0.07	-0.17	0.25	-0.43	-0.08	-9.68	253.28	3.02	16.86	29667.32	
17	5	0.25	-0.69	0.47	-0.36	-0.12	-9.81	252.72	3.00	16.89	29690.15	
